aX,aY,aZ,gX,gY,gZ
1.441,0.14,1.171,-29.419,-64.758,16.479
1.364,-0.085,1.095,-15.93,-47.18,1.404
1.337,-0.034,1.045,-7.141,-26.917,-0.488
1.343,-0.051,0.963,1.831,-3.357,-4.822
1.295,-0.138,0.735,9.521,30.334,-14.465
1.241,-0.133,0.592,12.268,49.805,-13.123
1.224,-0.136,0.422,13.916,60.791,-9.216
1.198,-0.082,0.316,15.32,59.875,-4.639
1.142,-0.023,0.249,14.832,54.321,-1.526
1.1,-0.005,0.217,13.062,53.955,-2.014
1.054,-0.007,0.208,12.085,58.35,-4.15
1.039,0.002,0.206,10.986,66.162,-5.066
1.044,0.025,0.232,10.071,76.355,-5.371
1.077,0.028,0.29,9.399,90.088,-5.615
1.07,0.03,0.319,8.484,108.765,-5.127
1.006,0.055,0.272,9.399,132.629,-5.005
0.945,0.046,0.179,7.507,156.677,-6.775
0.883,0.06,0.055,4.395,175.964,-5.676
0.826,0.086,-0.035,0.61,187.561,-3.479
0.801,0.083,-0.094,0.244,190.979,-2.808
0.777,0.088,-0.1,0,189.636,-3.174
0.742,0.053,-0.099,6.348,188.782,-5.005
0.731,0.039,-0.181,12.512,191.895,-7.996
0.715,0.039,-0.292,17.212,190.43,-8.789
0.705,0.021,-0.36,21.057,175.11,-8.606
0.704,0.008,-0.408,24.109,151.184,-8.179
0.653,-0.019,-0.484,25.208,121.155,-7.812
0.64,-0.007,-0.542,23.193,88.745,-5.676
0.657,0.011,-0.597,20.813,58.594,-3.113
0.722,0.013,-0.586,15.076,29.053,-0.671
0.802,0.033,-0.537,9.644,3.174,1.526
0.882,0.039,-0.408,5.493,-18.127,1.587
0.933,-0.003,-0.273,1.16,-29.114,-0.916
0.957,-0.061,-0.22,-3.54,-28.625,-1.221
0.977,-0.065,-0.154,-8.362,-27.1,2.502
1.005,-0.053,-0.134,-9.827,-22.4,6.714
1.039,-0.042,-0.151,-9.644,-16.663,7.935
1.046,-0.021,-0.198,-7.507,-14.587,7.69
1.039,-0.001,-0.168,-5.432,-17.334,5.737
1.021,-0.007,-0.189,-2.38,-16.785,3.601
1.012,0.017,-0.219,-1.648,-13.062,2.319
1.002,0.009,-0.216,-1.343,-11.414,0.61
1.01,-0.002,-0.202,-3.174,-10.681,-0.244
0.997,0.008,-0.199,-4.395,-9.949,1.099
0.995,0.007,-0.199,-4.211,-9.888,1.343
0.976,0.006,-0.189,-3.113,-10.681,0.916
0.959,-0.007,-0.176,-1.282,-10.437,0.427
0.956,-0.023,-0.176,-0.366,-8.484,0.427
0.96,-0.005,-0.207,-0.244,-5.798,2.258
0.976,0.006,-0.24,0.671,-4.639,3.113
1.001,0.01,-0.251,0,-5.493,3.296
1.014,0.008,-0.249,-1.953,-8.057,3.845
1.026,0.001,-0.243,-4.15,-10.437,4.456
1.034,-0.009,-0.229,-5.981,-11.902,5.31
1.019,-0.048,-0.268,-7.324,-14.526,7.08
1.06,-0.027,-0.168,-9.583,-21.24,10.071
1.188,-0.051,-0.195,-7.568,-20.874,12.024
1.217,-0.054,-0.182,-4.883,-26.489,14.404
1.279,-0.055,-0.16,-0.488,-30.945,13.306
1.329,-0.025,-0.141,5.493,-29.785,9.46
1.373,0.012,-0.108,9.644,-25.33,3.845
1.35,0.022,-0.108,14.465,-18.188,-1.648
1.343,0.022,-0.123,15.747,-9.399,-3.235
1.367,0.022,-0.127,13.245,-0.488,-2.38
1.378,0.04,-0.134,11.047,9.399,0.488
1.374,0.085,-0.193,10.376,19.165,3.54
1.364,0.123,-0.243,10.803,23.865,3.784
1.337,0.123,-0.304,13.428,23.682,2.014
1.286,0.144,-0.318,15.137,21.301,1.343
1.244,0.121,-0.357,14.16,21.729,1.404
1.206,0.15,-0.346,10.986,23.315,4.15
1.182,0.131,-0.335,7.446,29.114,5.127
1.163,0.096,-0.325,2.625,35.583,7.202
1.18,0.09,-0.326,-2.258,39.856,11.292
1.15,0.114,-0.312,-5.981,39.612,14.526
1.148,0.125,-0.3,-6.958,38.33,13.245
1.221,0.079,-0.272,-6.287,33.875,9.705
1.141,0.104,-0.223,-8.057,27.527,8.362
1.122,0.107,-0.199,-7.874,28.442,3.723
0.999,0.033,-0.303,-5.737,32.837,-2.075
0.941,0.006,-0.323,-4.517,29.419,-3.662
0.953,-0.015,-0.312,-4.944,25.635,-3.479
0.902,0.012,-0.294,-7.263,23.987,-1.831
0.901,-0.046,-0.271,-8.911,22.949,-1.16
0.854,0.003,-0.255,-9.399,20.203,2.502
0.896,0.014,-0.253,-9.033,23.071,2.93
0.955,-0.015,-0.26,-7.935,24.048,0.916
0.894,0.007,-0.251,-7.324,17.09,2.319
0.903,-0.026,-0.165,-4.517,7.08,1.038
0.869,-0.009,-0.166,1.038,7.751,-1.587
0.871,-0.029,-0.229,5.981,16.296,-3.052
0.909,-0.016,-0.269,6.042,19.775,-2.747
0.897,-0.028,-0.337,2.38,16.235,-0.061
0.92,0.005,-0.244,-1.221,4.944,2.686
0.912,-0.028,-0.183,-2.563,3.723,1.282
0.877,-0.028,-0.244,-1.221,9.949,1.77
0.89,-0.039,-0.246,1.16,9.644,2.319
0.855,-0.045,-0.234,4.15,5.981,3.662
0.867,-0.026,-0.199,7.446,5.188,6.226
0.862,0.008,-0.231,9.277,9.155,7.935
0.888,-0.028,-0.288,14.832,10.986,7.019
0.858,0,-0.306,14.038,7.935,8.301
0.871,0.03,-0.294,13.306,3.418,11.414
0.919,0.042,-0.274,9.827,1.709,11.353
0.919,0.054,-0.271,7.69,1.77,10.254
0.902,0.029,-0.255,10.132,1.465,7.568
0.864,0.001,-0.229,9.338,1.892,6.775
0.87,-0.026,-0.187,8.118,3.174,7.996
0.891,-0.007,-0.133,8.545,5.188,11.719
0.919,0.019,-0.167,8.911,11.292,15.381
0.982,0.029,-0.256,11.353,17.029,16.357
0.96,0.059,-0.317,11.108,11.78,19.714
0.974,0.12,-0.255,9.155,4.211,21.729
0.987,0.123,-0.218,7.141,9.094,17.822
1.023,0.074,-0.266,8.118,16.968,13.306
0.949,0.019,-0.343,9.644,10.01,16.785
0.937,0.138,-0.222,2.502,-4.578,23.987
0.955,0.134,-0.241,6.287,-4.333,22.034
0.948,0.122,-0.287,7.141,0.061,17.7
,,,,,
1.898,0.3,-0.712,4.761,-94.482,37.354
2.107,0.302,-0.563,6.897,-109.741,31.128
2.403,0.385,-0.236,-0.061,-108.337,33.02
2.737,0.492,0.074,-14.587,-90.881,45.105
3.006,0.625,0.397,-30.457,-67.627,58.228
3.155,0.803,0.712,-43.152,-41.138,65.857
3.151,0.986,0.854,-52.307,-12.573,65.063
2.964,1.095,0.803,-52.795,8.057,49.561
2.681,1.068,0.66,-42.847,15.381,16.663
2.243,0.898,0.621,-23.01,10.864,-24.231
1.749,0.617,0.593,-6.775,13.489,-60.913
1.34,0.349,0.458,-1.282,32.471,-82.092
1.016,0.12,0.316,-1.953,52.124,-85.144
0.759,0.029,0.214,-6.287,62.378,-74.768
0.581,-0.031,0.151,-9.155,66.101,-60.242
0.497,-0.046,0.054,-10.01,66.589,-45.471
0.426,-0.023,-0.052,-13.733,61.951,-33.142
0.376,-0.03,-0.078,-5.188,47.485,-27.954
0.323,-0.066,-0.105,-2.075,35.156,-24.597
0.275,-0.101,-0.114,-3.113,29.053,-21.79
0.216,-0.147,-0.107,-3.784,25.452,-17.09
0.222,-0.137,-0.108,-3.357,22.034,-9.521
0.235,-0.127,-0.094,-2.625,18.86,-2.563
0.278,-0.102,-0.105,-1.404,15.747,3.479
0.362,-0.047,-0.116,0.305,10.742,8.606
0.433,0.02,-0.096,2.197,2.93,11.108
0.495,0.018,-0.048,2.38,-3.296,10.071
0.575,0.038,-0.047,-1.099,-4.333,11.047
0.693,0.068,-0.03,-4.089,-6.897,12.512
0.815,0.098,0.046,-4.517,-14.282,12.817
0.916,0.112,0.125,-3.357,-18.494,10.864
1.01,0.083,0.144,-1.892,-18.311,7.996
1.079,0.081,0.14,-3.174,-18.372,6.104
1.122,0.085,0.163,-1.648,-20.935,4.761
1.171,0.106,0.184,0.366,-20.935,3.601
1.221,0.117,0.17,1.526,-15.686,2.319
1.254,0.142,0.145,1.709,-8.972,1.16
1.273,0.13,0.134,0.793,-5.066,-0.61
1.262,0.15,0.145,-0.549,-2.869,-1.343
1.239,0.154,0.145,0.854,-0.549,-2.258
1.212,0.166,0.113,2.502,3.357,-3.845
1.12,0.151,0.115,4.028,4.883,-5.005
1.031,0.086,0.108,4.028,6.836,-4.822
1.041,0.107,0.039,1.892,11.597,1.099
1.052,0.193,0.034,2.502,9.277,7.019
1.026,0.222,0.137,5.798,2.502,6.653
1.006,0.219,0.129,7.019,8.972,2.258
0.981,0.192,0.076,8.728,16.724,-1.16
0.953,0.199,0.054,10.01,15.991,-0.854
0.94,0.209,0.055,11.658,12.024,1.038
0.94,0.222,0.059,12.268,10.986,1.709
0.949,0.22,0.044,12.024,12.207,1.221
0.94,0.218,0.003,10.01,12.756,0.305
0.92,0.228,-0.021,8.362,9.766,0
0.907,0.222,-0.022,7.874,6.226,-0.854
0.903,0.194,-0.024,7.446,5.249,-2.014
0.899,0.16,-0.028,5.92,5.493,-2.319
0.9,0.145,-0.033,4.333,5.127,-0.549
0.935,0.162,-0.044,3.174,4.211,2.258
0.961,0.185,-0.023,4.395,2.441,3.479
0.977,0.191,-0.005,5.188,2.808,1.892
0.993,0.192,-0.026,5.066,7.141,-0.61
1.005,0.17,-0.053,2.991,10.925,-2.686
0.996,0.201,-0.082,-1.953,12.024,-2.808
1.001,0.169,-0.069,0.183,9.277,-3.174
1.015,0.144,-0.047,1.099,5.554,-2.747
1.001,0.149,-0.012,-2.869,3.235,-0.732
1.029,0.168,-0.012,-3.845,2.075,1.16
1.032,0.19,0.02,-2.991,0.122,1.038
1.024,0.176,0.051,-2.197,-0.244,-2.014
1.002,0.161,0.05,-2.258,2.93,-4.639
0.986,0.153,0.05,-1.221,3.723,-6.47
0.975,0.144,0.056,1.16,2.747,-7.996
0.974,0.132,0.063,3.296,3.357,-9.216
0.974,0.118,0.061,4.456,4.517,-9.338
0.96,0.119,0.057,4.272,4.7,-7.751
0.951,0.117,0.064,3.723,4.395,-6.226
0.936,0.132,0.052,-0.916,5.798,-5.92
0.927,0.111,0.035,2.747,7.507,-6.897
0.919,0.119,0.013,5.493,7.08,-4.944
0.926,0.133,0.01,5.188,5.554,-3.174
0.937,0.136,0.002,5.249,5.127,-2.686
0.929,0.147,0.003,0.183,5.676,-2.686
0.95,0.131,-0.013,-1.648,6.409,-3.418
0.946,0.144,-0.015,2.38,4.395,-2.441
0.963,0.164,-0.008,3.845,2.075,-2.136
0.971,0.157,0.004,4.028,0.732,-3.54
0.968,0.142,0.015,3.418,1.587,-4.761
0.968,0.134,-0.001,2.136,3.296,-3.845
0.968,0.133,-0.02,0.977,3.601,-2.136
0.972,0.13,-0.01,-0.854,0.977,-0.488
0.976,0.132,0.005,-1.587,-1.16,1.099
0.978,0.129,0.009,-1.282,-1.526,1.953
0.977,0.128,-0.008,-0.061,-1.526,2.014
0.981,0.131,-0.025,0.488,-1.77,1.709
0.975,0.123,-0.012,0.305,-2.441,1.099
0.973,0.121,0.01,0,-2.808,0.977
0.983,0.12,0.015,-0.061,-1.953,1.221
0.992,0.129,0.007,-0.793,-0.488,1.648
0.998,0.139,0.001,-1.16,-0.122,2.197
0.995,0.142,0.007,-0.671,-0.488,2.136
0.994,0.131,0.016,-0.061,-0.549,1.648
0.998,0.129,0.018,-0.183,-0.122,1.343
1.005,0.136,0.023,-0.061,-0.427,1.404
1.008,0.14,0.032,0.488,-0.793,0.916
1.004,0.114,0.029,1.648,-0.732,0.244
0.998,0.131,0.02,-5.615,1.221,0
0.98,0.102,0.004,-2.136,2.258,-0.916
0.973,0.115,0,1.892,0.549,2.319
0.982,0.131,0.004,1.282,-1.038,4.822
0.978,0.139,0.003,-0.122,-0.366,5.066
0.968,0.145,-0.005,-0.793,0.61,5.432
0.966,0.154,-0.012,-0.793,0.427,5.798
0.965,0.158,-0.003,-0.549,-0.61,5.493
0.972,0.163,0.012,0.305,-1.465,4.578
0.981,0.167,0.028,0.366,-1.526,3.54
0.972,0.154,0.025,1.526,-0.61,1.892
0.96,0.153,0.018,2.808,-0.366,1.099
0.958,0.149,0.014,3.967,-0.732,0.671
,,,,,
2.368,0.149,0.409,-44.922,-104.431,38.33
2.524,0.033,0.409,-41.016,-94.849,33.691
2.656,0.017,0.269,-31.982,-74.219,31.25
2.781,0.029,0.173,-26.611,-52.734,30.273
2.857,0.09,0.136,-25.818,-32.227,31.921
2.91,0.177,0.209,-26.428,-15.076,32.593
2.843,0.26,0.411,-26.062,-3.601,27.161
2.597,0.302,0.567,-24.597,6.348,15.503
2.326,0.269,0.56,-24.414,16.357,0.427
1.902,0.199,0.563,-15.686,17.517,-16.296
1.465,0.05,0.561,-2.502,16.968,-35.889
1.065,-0.084,0.407,6.287,28.503,-48.401
0.761,-0.109,0.163,10.742,41.321,-46.936
0.539,-0.114,0.001,12.756,44.006,-39.429
0.436,-0.088,-0.076,11.108,39.978,-28.198
0.38,-0.018,-0.116,5.371,35.156,-16.724
0.361,0.068,-0.174,-0.549,28.32,-6.775
0.396,0.114,-0.18,-4.578,17.639,-2.441
0.418,0.141,-0.134,-8.362,5.676,-1.648
0.445,0.118,-0.077,-10.498,-2.441,-2.93
0.497,0.091,-0.059,-11.536,-7.019,-4.272
0.593,0.111,-0.035,-11.658,-12.512,-5.249
0.626,-0.006,0.104,-9.644,-19.836,-9.094
0.681,-0.059,0.129,-9.705,-15.259,-7.08
0.773,-0.075,0.097,-9.399,-8.362,-0.916
0.894,-0.05,0.104,-9.216,-7.202,6.897
1.01,-0.018,0.116,-8.362,-6.714,13.184
1.105,-0.001,0.118,-7.69,-5.31,16.113
1.183,0.019,0.112,-6.165,-5.493,16.541
1.241,0.034,0.117,-4.517,-6.958,14.587
1.266,0.041,0.139,-3.052,-7.935,11.475
1.283,0.043,0.182,-1.282,-7.08,8.057
1.264,0.041,0.182,-0.61,-3.235,5.005
1.126,-0.035,0.207,-1.038,0.793,2.686
1.117,-0.044,0.125,-3.662,8.118,6.836
1.099,0.07,0.16,-2.991,6.531,13.855
1.07,0.059,0.208,1.221,1.587,8.545
1.024,0.064,0.139,3.052,6.104,3.052
0.97,0.06,0.118,5.432,5.737,-0.244
0.927,0.052,0.136,7.507,2.319,-1.709
0.906,0.063,0.135,8.789,1.709,-1.282
0.878,0.047,0.105,9.033,3.418,-0.549
0.85,0.051,0.079,7.141,3.54,0.488
0.846,0.068,0.063,6.653,0.549,2.014
0.856,0.073,0.058,7.751,-1.404,2.869
0.858,0.082,0.052,8.179,-1.526,3.967
0.892,0.093,0.037,9.277,-0.732,5.005
0.946,0.129,0.036,9.583,-0.488,5.432
0.985,0.154,0.039,8.789,-1.16,3.601
1.001,0.157,0.016,8.179,-1.099,0.854
1.009,0.145,0.019,7.141,-2.014,-1.282
1.015,0.134,0.054,6.348,-3.662,-2.075
1.018,0.115,0.09,6.165,-3.906,-2.319
1.024,0.106,0.089,6.042,-2.441,-2.136
1.021,0.093,0.078,5.493,-0.366,-1.526
1.013,0.082,0.07,4.089,0.977,-0.61
1,0.087,0.061,2.075,1.526,1.709
0.998,0.083,0.078,0.671,1.282,3.662
0.994,0.086,0.093,0.61,2.258,4.761
0.989,0.089,0.084,0.366,4.822,5.737
0.979,0.082,0.079,1.038,7.385,6.47
1.026,0.122,0.055,1.953,8.24,6.714
1.026,0.138,0.074,4.272,6.104,3.906
1.016,0.12,0.066,5.859,5.859,-1.709
0.986,0.085,0.037,7.568,5.92,-4.944
0.959,0.064,0.031,7.385,3.235,-6.287
0.944,0.038,0.052,6.409,-0.122,-5.798
0.938,0.02,0.078,5.371,-0.366,-4.089
0.949,0.018,0.093,4.089,1.953,-1.648
0.969,0.022,0.091,2.136,3.906,0.916
0.984,0.039,0.097,0.854,4.089,3.418
0.99,0.053,0.107,0.854,4.517,4.456
0.981,0.041,0.102,1.16,5.676,4.028
0.976,0.053,0.088,1.16,5.493,4.456
0.974,0.066,0.077,2.014,4.456,5.005
0.976,0.077,0.065,2.625,4.211,4.517
0.969,0.073,0.049,2.441,4.211,4.211
0.962,0.083,0.048,0.854,3.052,4.333
0.955,0.088,0.049,0.671,1.892,4.211
0.955,0.091,0.051,0.854,1.16,3.54
0.958,0.097,0.067,1.038,1.16,3.235
0.946,0.083,0.08,2.258,2.197,2.38
0.946,0.055,0.072,2.563,2.869,2.441
0.958,0.076,0.07,1.831,1.099,4.089
0.976,0.093,0.071,2.625,-1.16,4.822
0.99,0.097,0.071,3.54,-1.526,3.723
0.99,0.099,0.079,4.15,-1.221,2.869
0.998,0.106,0.076,4.7,-0.122,2.563
1.004,0.109,0.058,3.479,1.038,2.014
1,0.114,0.037,2.258,2.136,1.77
0.991,0.108,0.038,1.404,2.014,1.343
0.993,0.104,0.045,0.122,1.099,0.977
0.993,0.104,0.055,-0.61,0.488,0.854
0.983,0.097,0.062,-0.488,0.305,0.244
0.989,0.095,0.069,-0.488,0.183,-0.183
0.99,0.095,0.075,-0.732,-0.488,0
0.977,0.082,0.08,-0.793,-0.549,-0.488
0.959,0.063,0.085,-0.427,-0.366,-0.732
0.954,0.069,0.074,0.183,-0.061,-0.305
0.962,0.084,0.061,1.16,-0.122,0.183
0.968,0.085,0.068,1.831,-0.366,-0.183
0.979,0.072,0.074,2.197,-0.793,-0.366
0.981,0.082,0.066,1.465,-0.977,0.549
0.991,0.088,0.069,0.854,-1.221,1.282
0.992,0.088,0.074,0.732,-0.671,1.038
0.991,0.092,0.062,0.671,0.488,0.977
0.988,0.088,0.045,0.793,1.282,0.488
0.986,0.079,0.054,0.244,-0.122,0.061
0.976,0.073,0.077,0.061,-2.258,-0.122
0.965,0.059,0.089,0.977,-3.052,-0.244
0.959,0.047,0.094,1.221,-2.93,0.305
0.953,0.055,0.093,1.099,-1.953,1.709
0.966,0.058,0.077,1.282,-0.854,2.686
0.979,0.078,0.068,0.61,-0.549,3.54
0.99,0.09,0.072,0.183,-1.038,3.54
0.988,0.09,0.074,0.244,-1.77,2.686
0.977,0.081,0.081,0.366,-2.441,1.953
0.96,0.077,0.079,0.916,-2.563,2.014
0.96,0.08,0.086,1.648,-2.197,2.075
,,,,,
2.879,0.13,0.091,-17.395,-83.252,54.321
3.111,0.152,0.269,-14.16,-72.754,50.903
3.181,0.256,0.415,-13.672,-50.842,54.382
3.168,0.438,0.508,-10.498,-25.269,54.504
3.162,0.631,0.609,-8.179,-6.531,49.927
2.941,0.642,0.759,-4.7,6.714,35.278
2.551,0.532,0.658,1.038,24.292,14.038
2.176,0.387,0.548,6.897,37.476,-1.099
1.78,0.341,0.513,10.559,43.213,-6.409
1.41,0.321,0.351,13.55,54.138,-12.878
1.061,0.287,0.095,16.357,65.857,-21.973
0.848,0.201,0.066,19.775,63.965,-27.527
0.515,0.221,-0.137,20.142,63.782,-26.855
0.429,0.176,-0.249,11.292,58.533,-24.17
0.409,0.142,-0.206,7.263,42.908,-22.522
0.402,0.194,-0.219,2.625,32.532,-15.015
0.478,0.125,-0.139,-2.441,19.592,-12.695
0.515,0.105,-0.044,-3.479,6.042,-11.23
0.571,0.038,0.031,-3.723,-1.77,-10.193
0.704,0.002,0.063,-2.93,-4.333,-7.874
0.818,0.032,0.099,-2.319,-6.226,-4.211
0.924,0.034,0.121,-0.244,-7.568,-2.93
0.979,0.02,0.024,0.916,-0.061,-2.869
1.022,0.044,-0.064,1.16,3.174,-2.136
1.064,0.064,-0.082,0.305,1.709,-0.793
1.124,0.059,-0.047,0.183,-0.732,-0.977
1.139,0.069,-0.035,-1.099,-0.671,-1.282
1.093,0.004,-0.02,-2.441,1.099,-1.099
1.072,0,-0.022,-5.859,4.456,3.723
1.133,0.091,0.011,-7.507,2.441,9.094
1.129,0.099,0.111,-3.601,-2.625,5.249
1.082,0.076,0.092,-1.038,-0.549,-2.197
1.002,0.034,0.098,2.075,0.122,-6.836
0.946,0.018,0.102,3.662,-0.732,-8.606
0.899,0.014,0.099,4.272,-0.671,-8.301
0.864,0,0.088,4.639,-0.366,-7.08
0.836,0.008,0.082,4.517,-0.122,-5.31
0.824,0.015,0.056,4.944,0.122,-3.54
0.819,0.022,0.048,5.188,-0.122,-2.136
0.818,0.031,0.041,5.859,-0.671,-0.793
0.848,0.06,0.014,6.775,-0.854,0.793
0.906,0.125,-0.022,8.606,-2.319,0.854
0.937,0.119,0,11.292,-6.165,-3.174
0.908,0.055,0.021,12.329,-6.287,-5.798
0.922,0.07,-0.026,10.986,-2.38,-1.953
0.976,0.109,-0.037,9.155,-1.831,4.028
1.063,0.17,-0.036,5.798,-2.991,8.057
1.122,0.198,0.005,3.906,-4.211,8.118
1.163,0.2,0.03,3.052,-4.028,5.371
1.163,0.201,0.032,3.113,-2.258,2.075
1.09,0.123,0.044,2.319,1.038,-0.488
1.054,0.082,-0.002,-1.465,6.226,2.808
1.118,0.173,-0.023,-4.395,5.066,9.583
1.115,0.203,0.034,-1.648,-0.671,7.385
1.09,0.167,0.01,0.854,0.427,-1.526
1.038,0.134,-0.015,2.502,3.235,-6.287
0.993,0.112,-0.015,2.319,2.991,-8.179
0.953,0.076,-0.018,1.038,3.357,-9.155
0.914,0.043,-0.013,0,2.869,-8.545
0.898,0.026,-0.01,-0.122,1.892,-6.958
0.896,0.023,0.002,0.305,1.16,-5.249
0.902,0.033,0.012,1.221,1.038,-3.906
0.907,0.028,0.005,1.831,0.732,-3.113
0.925,0.039,-0.007,1.404,0.122,-2.38
0.93,0.047,-0.006,0.61,-1.404,-2.136
0.925,0.035,0.006,0.305,-2.136,-2.991
0.918,0.022,0.022,1.282,-2.686,-3.113
0.917,0.018,0.034,2.686,-2.808,-2.441
0.935,0.023,0.019,3.784,-2.014,-1.465
0.954,0.042,0.001,4.395,-1.77,-0.549
0.969,0.042,0.018,5.005,-2.869,-0.305
0.979,0.039,0.04,5.066,-2.808,0.122
1.002,0.057,0.074,4.639,-1.465,1.221
1.017,0.076,0.071,4.456,0.488,1.831
1.018,0.086,0.047,4.7,2.319,1.709
1.021,0.106,0.023,4.333,2.441,1.404
1.01,0.113,0.007,3.967,1.343,1.16
1.026,0.135,-0.025,3.235,0.305,0.061
1.006,0.124,0.017,3.052,-1.953,-2.258
0.995,0.086,0.008,2.991,-2.136,-5.005
0.98,0.068,0.011,2.563,-2.197,-4.211
0.974,0.064,0.01,1.587,-2.441,-2.38
0.97,0.061,0.02,0.854,-2.075,-1.099
0.965,0.054,0.03,0.549,-1.587,0.183
0.959,0.051,0.014,0.122,-0.305,1.587
0.958,0.053,0.008,-0.488,0.549,3.113
0.977,0.072,0.014,-0.61,0.61,4.15
0.982,0.086,0.003,-0.305,0.366,3.845
0.97,0.077,-0.011,-0.244,0.122,2.136
0.964,0.069,0.017,-0.061,-1.465,0.732
0.972,0.069,0.027,0.793,-2.075,0.244
0.979,0.071,0.026,0.916,-1.16,-0.427
0.977,0.066,0.019,1.282,-0.732,-0.916
0.975,0.064,0.026,1.831,-1.648,-0.61
0.992,0.072,0.041,2.197,-2.502,-0.183
1.005,0.077,0.045,1.831,-2.075,0.183
1.009,0.081,0.032,1.099,-1.16,0.488
1.002,0.085,0.021,0.366,-0.671,0.977
0.996,0.087,0.006,0.183,-1.038,1.282
0.975,0.065,0.02,0.427,-1.099,0.916
0.966,0.05,0.041,-0.061,-0.854,0.854
0.97,0.059,0.035,0.183,0,2.441
0.983,0.081,0.019,0.977,0.793,3.662
0.984,0.09,0.015,1.709,1.16,3.418
0.987,0.083,0.021,1.709,0.854,2.93
0.999,0.096,0.024,0.366,-0.549,3.113
1,0.099,0.026,0,-2.197,2.563
0.997,0.107,0.014,-0.183,-3.296,1.77
0.986,0.102,0.014,-0.305,-3.54,0.549
0.972,0.089,0.033,0.061,-3.113,-0.671
0.96,0.072,0.041,0.61,-2.075,-1.282
0.973,0.071,0.04,0.671,-1.404,-1.038
0.981,0.073,0.044,0.61,-0.732,-0.366
0.991,0.081,0.031,0.366,-0.061,0.366
0.992,0.088,0.017,-0.244,0.671,0.671
0.987,0.085,0.017,-0.427,0.793,0.305
0.984,0.072,0.03,-0.244,0.122,-0.244
0.985,0.068,0.025,-0.122,-0.854,-0.122
0.984,0.064,0.029,0.183,-1.587,0.122
,,,,,
2.315,-0.088,0.043,-17.761,-23.926,44.617
2.333,0.089,-0.014,-12.939,-10.986,49.805
2.394,0.281,0.094,-8.789,-5.066,46.387
2.373,0.367,0.266,-8.24,-0.549,35.95
2.183,0.354,0.361,-7.385,7.019,20.386
1.905,0.258,0.332,-3.54,14.954,5.005
1.571,0.171,0.252,-1.526,21.179,-3.479
1.279,0.111,0.235,2.808,21.667,-7.751
1.035,0.069,0.17,5.859,24.902,-10.62
0.797,0.031,-0.021,6.226,31.311,-11.78
0.652,0.014,-0.162,5.432,31.067,-9.277
0.609,-0.046,-0.082,5.371,20.874,-6.775
0.582,-0.055,-0.017,4.7,11.963,-2.441
0.551,-0.021,-0.087,4.822,7.202,1.953
0.566,-0.014,-0.16,5.371,1.831,3.601
0.705,0.035,-0.12,5.127,-7.507,5.371
0.757,-0.053,0.049,5.31,-17.212,4.883
0.859,-0.054,0.099,3.967,-13.855,7.629
0.959,-0.046,0.086,3.174,-5.92,12.39
1.063,0.005,0.025,1.709,-1.709,17.883
1.181,0.087,0.02,1.892,-1.282,20.447
1.256,0.141,0,2.38,-0.549,18.127
1.236,0.144,-0.047,3.113,0.732,11.292
1.104,0.031,-0.057,3.601,1.648,5.432
1.11,0.097,-0.13,0.427,4.028,8.911
1.085,0.134,-0.033,1.648,-1.282,9.277
1.077,0.125,-0.044,1.77,-1.465,2.319
1.027,0.106,-0.015,2.319,-1.282,-1.038
0.976,0.073,0.01,2.319,-2.319,-2.502
0.936,0.061,0.028,2.136,-2.38,-2.258
0.941,0.073,0.074,2.014,-2.075,-1.221
0.96,0.078,0.074,1.282,-0.244,-0.122
0.937,0.083,0.046,0.427,1.16,-0.122
0.898,0.066,0.038,1.465,0.427,-2.197
0.88,0.042,0.037,2.563,-0.549,-3.723
0.894,0.044,-0.004,2.197,-0.305,-2.563
0.915,0.05,-0.039,0.732,-1.343,-0.916
0.949,0.063,0.004,1.099,-4.578,-1.099
0.996,0.067,0.065,2.747,-7.202,-2.014
1.024,0.07,0.025,2.686,-3.418,-2.319
1.021,0.062,-0.025,1.404,0.183,-2.136
1.01,0.076,-0.045,0.916,-0.61,-1.343
1.012,0.098,-0.064,1.648,-1.831,-0.977
1.011,0.11,-0.081,2.014,-1.892,-1.831
1.007,0.098,-0.073,1.038,-1.343,-2.869
0.99,0.079,-0.075,-0.916,-0.244,-3.113
1,0.072,-0.053,-2.319,-1.221,-2.197
1.013,0.065,-0.009,-3.174,-2.93,-0.732
1.026,0.056,0.038,-2.808,-2.625,0.427
1.1,0.112,0.059,-1.648,-1.77,0.732
1.096,0.067,0.094,1.892,-2.808,-3.479
1.058,0.034,0.044,2.869,-0.854,-7.263
0.998,0.02,0.02,4.272,-1.282,-7.751
0.962,0.007,-0.012,5.615,-1.77,-7.629
0.941,0.013,-0.029,6.287,-1.831,-6.714
0.942,0.04,-0.055,6.226,-1.16,-5.615
0.929,0.033,-0.069,5.188,-0.793,-5.737
0.92,0.026,-0.068,3.357,-0.305,-5.615
0.915,0.02,-0.037,2.197,-0.793,-4.456
0.925,0.028,-0.037,1.892,-0.854,-2.991
0.948,0.034,0.002,2.625,-0.549,-2.502
0.975,0.027,0.042,3.418,-0.488,-2.014
0.98,0.035,0.023,4.211,-0.122,-1.282
0.994,0.055,-0.006,4.211,-0.671,-0.977
1.001,0.071,-0.013,4.639,-1.587,-0.793
1.002,0.082,-0.016,3.845,-1.892,-1.221
0.984,0.076,-0.023,2.747,-1.282,-1.953
0.964,0.048,-0.016,2.319,-0.916,-2.686
0.941,0.026,-0.002,1.343,-1.465,-2.441
0.938,0.024,-0.004,0.488,-1.404,-0.854
0.96,0.039,-0.008,0.061,-1.099,0.916
0.979,0.074,-0.007,0.427,-1.77,1.648
0.98,0.071,-0.013,1.099,-2.136,-0.061
0.973,0.059,-0.009,1.465,-2.563,-1.709
0.996,0.07,0,1.77,-3.113,-2.014
0.999,0.064,0,1.709,-2.93,-2.808
0.994,0.037,0.014,1.953,-2.563,-3.845
0.998,0.038,0.045,2.502,-2.808,-2.991
1.009,0.047,0.033,2.502,-1.648,-2.136
1,0.061,-0.027,1.343,0.549,-2.258
0.995,0.067,-0.037,0.854,-0.977,-2.625
0.984,0.062,-0.007,0.854,-3.357,-3.845
0.969,0.055,-0.004,1.221,-3.784,-5.249
0.974,0.054,-0.01,1.709,-3.418,-6.042
0.975,0.052,-0.016,0.793,-3.601,-6.348
0.962,0.048,-0.025,-0.732,-4.517,-6.042
0.955,0.029,-0.02,-1.587,-6.714,-5.493
0.97,0.02,0.006,-2.869,-8.118,-3.235
0.989,-0.004,0.073,-3.784,-8.118,-1.099
0.997,-0.023,0.097,-3.357,-5.737,0.854
1.023,-0.012,0.085,-2.686,-2.991,2.686
1.037,0.01,0.053,-1.892,-0.977,3.235
1.018,0.01,0.042,-0.916,-0.244,2.014
1.003,-0.008,0.022,-0.549,0.61,1.099
0.989,0.004,0.025,-0.244,0.854,2.625
0.978,0.018,0.005,0.427,0.793,3.906
0.97,0.019,-0.001,0.61,2.258,3.845
0.981,0.029,0.003,0.671,2.93,3.967
1.001,0.031,0.009,1.099,2.502,3.967
1.018,0.043,0.015,1.404,0.488,3.235
1.011,0.035,0.038,3.113,-2.197,1.77
1.002,0.016,0.047,4.028,-2.441,0
0.986,0.019,0.018,3.601,-0.61,0.61
0.989,0.045,-0.011,2.197,1.587,2.075
0.992,0.064,-0.021,1.587,1.343,2.197
0.992,0.066,-0.013,1.709,-0.244,1.648
0.978,0.073,-0.012,1.526,-1.221,0.671
0.956,0.061,-0.021,1.099,-1.77,0
0.956,0.064,-0.014,0.244,-1.892,0.183
0.973,0.072,0.003,-0.549,-1.587,0.916
0.99,0.076,0.009,-1.343,-0.916,1.343
0.99,0.074,0.028,-2.075,-0.916,1.038
0.975,0.049,0.031,-1.648,-1.099,-0.061
0.977,0.049,0.02,-0.671,-0.916,-0.305
0.993,0.055,0.021,0.305,-0.916,-0.183
0.997,0.049,0.013,0.366,-0.671,-0.854
0.983,0.046,-0.006,-0.061,-1.16,-1.221
0.974,0.039,0,-0.793,-2.502,-1.16
0.97,0.028,0.032,-0.61,-3.845,-1.282
,,,,,
2.37,0.294,0.277,-11.108,-30.762,66.833
2.451,0.521,0.276,-8.606,-12.024,63.11
2.49,0.648,0.327,-6.348,-2.563,50.049
2.326,0.6,0.452,-7.08,2.258,28.503
2.005,0.391,0.423,-7.202,12.939,8.24
1.788,0.302,0.344,-7.324,22.522,-0.305
1.532,0.3,0.443,-2.319,20.63,-1.648
1.277,0.294,0.217,1.587,32.104,-9.766
0.995,0.236,-0.007,5.981,41.382,-20.569
0.735,0.162,-0.101,9.033,36.499,-27.344
0.549,0.088,-0.218,7.69,31.25,-28.503
0.447,0.048,-0.235,4.028,25.635,-24.719
0.484,0.022,-0.161,1.282,16.479,-18.372
0.569,0.046,-0.081,-1.404,8.85,-11.292
0.666,0.052,-0.024,-3.601,3.784,-6.47
0.73,0.026,0.01,-4.456,0.793,-4.272
0.836,0.031,0.043,-2.686,-2.441,-2.686
0.893,-0.003,0.087,1.77,-4.028,-4.272
0.903,-0.05,0.036,4.333,-0.366,-5.615
0.966,-0.023,-0.023,4.7,3.662,-1.465
1.02,0.023,-0.023,4.333,3.845,4.15
1.093,0.071,-0.054,4.15,3.418,5.249
1.123,0.122,-0.048,3.967,1.709,4.333
1.076,0.112,-0.062,3.479,2.319,1.831
1.047,0.102,-0.123,1.221,4.944,1.099
1.032,0.113,-0.077,-0.793,2.502,3.296
1.071,0.193,-0.065,-2.197,0.671,3.784
1.015,0.152,-0.022,-0.427,-1.587,-2.197
0.951,0.109,-0.048,-0.061,-0.793,-7.019
0.927,0.102,-0.015,0.183,-1.343,-7.263
0.932,0.103,0.014,0.549,-2.747,-6.104
0.943,0.116,0.024,0.977,-3.723,-5.432
0.938,0.114,0.033,1.282,-4.395,-5.676
0.935,0.105,0.033,1.221,-4.089,-6.287
0.919,0.1,0.005,1.221,-2.808,-5.981
0.932,0.087,-0.005,1.099,-1.892,-5.371
0.958,0.105,0,2.686,-2.319,-4.517
0.974,0.108,-0.022,4.028,-2.38,-5.31
0.983,0.107,-0.069,4.578,-1.221,-6.287
0.997,0.099,-0.076,4.944,-1.831,-7.019
1.015,0.096,-0.045,4.333,-2.93,-6.836
1.035,0.1,-0.015,3.113,-2.625,-5.066
1.044,0.088,-0.01,1.831,-0.793,-3.601
1.029,0.09,-0.024,0.366,1.953,-1.465
1.031,0.104,-0.031,-0.854,3.418,1.282
1.017,0.11,-0.041,-1.404,4.578,3.113
1.058,0.136,-0.072,-1.709,5.188,4.089
1.043,0.169,-0.037,-0.488,1.526,1.953
1.034,0.138,-0.039,1.282,-1.526,-4.211
1.001,0.115,-0.061,1.343,-0.427,-6.958
0.995,0.099,-0.05,0.427,-0.854,-8.484
0.986,0.092,-0.034,-0.488,-1.465,-8.85
0.965,0.067,-0.024,-0.732,-1.526,-9.888
0.93,0.025,-0.018,0,-1.587,-10.62
0.921,0.007,-0.006,0.793,-1.465,-9.216
0.92,0.012,-0.011,1.099,-0.61,-6.592
0.93,0.03,-0.046,1.038,0.427,-4.333
0.953,0.06,-0.059,0.977,-0.427,-3.052
0.954,0.064,-0.029,1.587,-2.502,-3.479
0.942,0.04,-0.018,2.258,-3.052,-5.066
0.909,0.011,-0.015,2.808,-2.747,-5.554
0.912,0.009,-0.023,2.808,-1.526,-3.967
0.966,0.054,-0.019,2.625,-0.61,-1.099
1.002,0.074,-0.01,2.625,-0.61,-0.305
1.002,0.083,-0.038,2.014,0.488,-0.793
1.001,0.082,-0.029,2.075,-0.122,-0.977
1.001,0.089,-0.017,1.587,-1.526,-0.854
1.001,0.095,-0.02,1.282,-1.099,-0.854
1.001,0.086,-0.022,1.038,-0.122,-1.038
1.001,0.083,-0.011,1.099,0,-0.549
1.008,0.099,-0.014,0.671,0.183,0.61
1.015,0.106,-0.018,0.427,0.488,0.854
1.024,0.12,-0.037,0.122,0.732,0.061
0.997,0.104,0,2.136,-1.526,-2.075
0.989,0.072,-0.019,2.808,-1.038,-5.005
0.983,0.069,-0.032,2.014,0.061,-4.211
0.965,0.058,-0.037,1.221,-0.244,-2.93
0.949,0.048,-0.026,0.244,-0.793,-2.38
0.932,0.021,-0.022,-0.061,-0.671,-1.526
0.948,0.031,-0.025,-0.122,-0.427,0.061
0.976,0.05,-0.009,0.732,-0.854,1.038
0.993,0.071,-0.025,0.977,0.244,0.366
1.018,0.092,-0.02,1.282,0.488,-0.671
1.01,0.081,-0.03,0.183,-0.122,-1.709
0.984,0.071,-0.038,-1.099,-1.099,-2.441
0.989,0.069,-0.024,-1.404,-2.808,-2.808
0.983,0.048,0.015,-1.648,-2.563,-2.686
0.987,0.052,0.005,-1.343,-0.549,-2.075
0.972,0.031,0.005,0.793,-0.854,-2.197
0.967,0.024,-0.023,1.221,-0.183,-1.404
0.968,0.036,-0.025,0.61,-0.122,2.014
0.985,0.067,-0.032,0.244,-0.122,3.967
1.001,0.082,-0.033,0.61,0.671,3.418
1.001,0.079,-0.016,0.122,1.831,2.502
0.993,0.07,-0.009,0.122,1.099,2.991
0.998,0.088,-0.025,0.244,-0.183,3.174
0.994,0.087,-0.023,0.305,-0.793,2.563
0.981,0.088,-0.029,-0.244,0,1.892
0.97,0.076,-0.021,0.488,-0.122,1.587
0.978,0.078,-0.012,1.282,-0.366,1.526
0.998,0.089,-0.031,1.404,-0.427,2.014
1.005,0.102,-0.025,1.282,-1.16,1.465
1.018,0.099,-0.04,1.038,-1.77,-0.183
1.009,0.085,-0.015,0.977,-3.235,-1.709
1.003,0.062,-0.014,1.038,-3.052,-2.93
0.988,0.049,-0.008,1.282,-2.38,-3.113
0.977,0.044,-0.002,1.465,-2.136,-2.502
0.959,0.029,-0.005,1.526,-1.404,-2.197
0.954,0.031,-0.013,0.977,-0.427,-1.099
0.953,0.035,-0.007,1.221,-0.427,0.305
0.954,0.039,-0.005,1.709,-0.671,1.343
0.959,0.054,-0.015,2.319,-0.732,1.892
0.97,0.063,-0.007,2.991,-1.404,1.77
0.981,0.07,-0.009,2.808,-1.099,1.282
0.982,0.069,-0.021,1.892,-0.427,0.732
0.986,0.074,-0.03,1.221,-0.305,0.427
1,0.089,-0.033,0.916,-0.671,0.549
1.001,0.092,-0.042,0.366,-0.61,0
1.001,0.08,-0.029,-0.549,-0.549,-0.366
,,,,,
2.08,0.449,-0.008,-7.202,-10.864,16.663
1.87,0.371,0.024,-4.639,-8.24,-0.427
1.662,0.272,0.057,-4.028,-8.667,-11.475
1.431,0.153,0.118,-3.662,-8.606,-18.799
1.192,0.116,0.101,-3.845,-6.104,-18.066
1.045,0.038,0.057,-3.418,-1.953,-16.418
1.007,-0.013,0.154,-3.54,-0.916,-13.672
1,-0.023,0.246,-4.456,0.977,-6.165
1.013,-0.013,0.22,-4.272,6.409,-1.587
1.028,0.002,0.151,-3.479,10.498,0.183
0.975,-0.046,0.152,-1.648,8.728,-1.404
0.905,-0.071,0.065,-0.549,7.324,-1.221
0.866,-0.061,-0.013,2.014,3.357,-0.305
0.885,-0.075,-0.01,4.272,0.183,-2.014
0.93,-0.107,0.029,6.042,-0.427,-3.296
0.976,-0.112,0.032,6.958,0.854,-1.404
1.028,-0.081,0.014,7.629,1.831,3.235
1.065,-0.048,-0.021,7.446,3.479,7.446
1.068,-0.013,-0.061,5.798,5.188,11.169
1.095,0.023,-0.094,4.578,4.639,14.282
1.122,0.146,-0.058,4.456,1.587,14.038
1.082,0.101,-0.03,6.775,-0.427,4.822
1.004,0.069,-0.081,7.629,4.15,-1.221
0.955,0.07,-0.065,7.629,3.54,-1.221
0.944,0.094,-0.074,6.653,3.601,1.038
0.961,0.132,-0.08,4.333,3.906,2.991
0.991,0.163,-0.045,1.709,2.136,3.296
0.999,0.176,-0.021,0.122,0.183,1.038
0.975,0.15,-0.002,0.122,-0.854,-2.808
0.93,0.121,0.01,0.671,-1.038,-5.615
0.888,0.086,-0.016,1.709,-0.122,-6.287
0.868,0.067,-0.034,1.709,0.244,-5.005
0.915,0.091,-0.061,0.977,0.061,-1.831
0.969,0.141,-0.052,0.549,-1.709,-0.061
1.004,0.139,-0.056,1.038,-3.052,-2.563
1.007,0.125,-0.089,1.099,-2.625,-5.066
1.004,0.089,-0.064,1.038,-4.395,-6.592
1.021,0.068,-0.041,0.122,-4.639,-6.836
1.031,0.056,-0.03,-0.671,-2.808,-5.737
1.036,0.049,-0.037,-1.038,-1.404,-4.883
1.022,0.033,-0.022,-1.221,-1.282,-3.54
1.013,0.028,-0.003,-1.282,-1.343,-1.77
1.004,0.033,-0.021,-1.587,0.183,0.427
0.992,0.042,-0.048,-1.587,2.075,1.953
1.031,0.073,-0.069,-1.343,1.587,2.869
1.043,0.135,-0.029,-0.244,-1.16,0.732
1.008,0.058,-0.008,2.625,-2.747,-6.897
0.983,0.038,-0.027,4.272,-1.343,-9.766
0.97,0.021,-0.013,4.944,-2.258,-9.277
0.939,0.005,-0.048,4.211,-2.075,-7.324
0.929,0.006,-0.074,2.747,-2.075,-5.127
0.919,0.011,-0.078,1.648,-2.136,-3.235
0.901,-0.011,-0.044,1.16,-2.197,-2.136
0.877,-0.016,-0.046,1.77,-1.648,-0.427
0.914,0.021,-0.067,2.38,-0.793,2.563
0.971,0.082,-0.037,2.563,-1.892,4.211
0.992,0.092,-0.063,2.747,-2.319,1.77
0.995,0.091,-0.085,2.319,-2.991,-0.793
1,0.091,-0.065,1.709,-5.737,-1.953
0.998,0.062,-0.009,1.77,-7.141,-3.052
1.009,0.062,0.016,2.136,-6.226,-2.93
1.012,0.055,0.016,2.563,-4.211,-2.197
1.003,0.045,0,2.502,-2.38,-1.465
1.002,0.05,-0.001,2.319,-1.526,-0.061
1.013,0.071,-0.007,2.014,-0.854,1.038
1.006,0.082,-0.032,2.075,-0.183,1.038
0.991,0.084,-0.051,2.563,-0.793,-0.122
0.988,0.076,-0.042,2.197,-2.563,-1.221
0.984,0.062,-0.011,0.916,-3.235,-1.953
0.99,0.052,-0.002,-0.183,-2.136,-2.014
1.033,0.086,-0.006,-0.122,-1.892,-2.014
1.022,0.041,0.037,1.77,-3.601,-4.578
1,0.025,0.005,2.319,-1.343,-5.676
0.975,0.018,-0.013,2.563,-0.916,-4.028
0.948,0.009,-0.031,1.831,-0.549,-2.625
0.941,0.025,-0.043,0.854,-0.061,-0.61
0.941,0.039,-0.052,-0.305,0.183,0.977
0.948,0.052,-0.064,-0.366,-0.122,1.343
0.96,0.063,-0.048,-0.122,-1.404,0.854
0.977,0.059,-0.015,0.671,-2.747,-0.549
0.991,0.064,-0.002,1.282,-2.625,-1.587
0.984,0.052,-0.008,1.709,-2.075,-2.319
0.989,0.04,-0.011,1.892,-1.831,-2.625
1,0.037,0.005,1.77,-1.892,-1.892
0.996,0.03,-0.01,1.099,-1.465,-1.16
0.998,0.036,-0.028,1.038,-1.648,-0.549
1.012,0.053,-0.02,0.977,-2.258,-0.122
1.001,0.041,-0.011,0.854,-2.136,-0.427
0.994,0.035,-0.013,1.282,-1.892,-0.244
0.983,0.029,-0.011,1.526,-1.953,0.916
0.975,0.028,-0.02,1.282,-1.221,1.892
0.976,0.038,-0.025,0.488,-0.488,3.113
0.978,0.047,-0.024,0.305,-0.488,3.723
0.984,0.063,-0.037,0.732,-0.671,3.723
0.991,0.071,-0.029,0.854,-1.099,2.869
1.004,0.07,-0.011,0.977,-1.16,1.831
1.021,0.084,0.001,1.526,-1.526,0.61
1.019,0.072,-0.006,2.38,-1.953,-1.404
1.005,0.07,-0.026,2.38,-2.014,-2.258
0.994,0.063,-0.032,1.709,-2.441,-2.563
0.987,0.063,-0.031,1.038,-2.319,-2.502
0.974,0.05,-0.029,0.671,-2.197,-2.38
0.972,0.045,-0.017,0.671,-2.258,-2.014
0.98,0.04,0.006,0.366,-2.075,-0.793
0.978,0.039,0.004,0,-0.977,0.366
0.985,0.041,0,-0.061,-0.732,1.16
0.995,0.057,-0.006,-0.122,-0.61,1.587
0.991,0.056,-0.004,0.732,-0.916,0.61
0.985,0.052,-0.004,1.831,-1.465,-0.977
0.969,0.043,-0.008,2.014,-1.77,-1.709
0.952,0.032,-0.029,1.404,-1.221,-1.77
0.962,0.036,-0.029,0.488,-1.282,-0.916
0.981,0.049,-0.01,0.366,-1.77,-0.183
0.99,0.035,0.01,0.854,-2.136,-0.977
0.986,0.026,0.005,1.221,-1.709,-1.038
0.992,0.044,0.003,1.648,-2.014,-0.122
0.991,0.046,-0.001,1.77,-1.465,-0.183
0.995,0.045,-0.012,1.038,-0.122,-0.549
1.001,0.04,-0.012,0.366,0,0.061
,,,,,
2.436,0.466,-0.168,-13.794,-22.156,78.186
2.569,0.643,0.025,-13.062,-22.4,66.833
2.486,0.674,0.215,-11.841,-21.729,49.561
2.243,0.583,0.183,-9.46,-12.878,26.123
1.931,0.428,0.21,-8.423,-6.409,4.761
1.579,0.259,0.207,-9.155,-2.197,-6.714
1.269,0.095,0.192,-10.498,1.709,-10.864
1.035,-0.009,0.178,-12.024,5.737,-8.423
0.957,0.024,0.151,-13.245,8.667,-1.038
0.908,0.019,0.169,-12.695,9.094,0.793
0.834,-0.015,0.16,-10.315,10.132,-2.014
0.734,-0.064,0.099,-6.897,7.812,-4.272
0.705,-0.104,0.069,-3.906,3.784,-4.578
0.803,-0.039,0.05,-2.563,0.244,-1.892
0.81,-0.076,0.152,1.282,-7.324,-2.319
0.859,-0.091,0.099,1.282,-3.845,-1.465
0.908,-0.057,0.052,0.793,0.366,3.845
1.022,0.035,-0.008,0.61,0.305,9.399
1.104,0.113,-0.036,1.831,-2.197,10.742
1.125,0.116,-0.07,1.831,-3.296,6.104
1.125,0.099,-0.008,2.197,-5.432,1.892
1.074,0.064,0.059,2.319,-5.554,0.427
1.047,0.064,0.034,1.343,-0.977,2.38
1.062,0.103,0.021,-0.549,3.235,7.507
1.053,0.124,0.044,-3.113,6.104,11.353
1.103,0.202,-0.011,-5.005,8.85,13
1.056,0.232,0.028,-3.113,4.7,8.667
0.985,0.166,-0.009,-1.038,1.953,-1.77
0.88,0.077,0.026,0.61,-0.244,-5.554
0.861,0.051,0.077,0.671,-2.075,-3.174
0.868,0.071,0.065,0.366,-0.366,0.916
0.894,0.114,-0.024,0.488,1.221,2.502
0.926,0.139,-0.006,2.686,-2.869,-0.366
0.976,0.124,0.048,4.761,-7.874,-5.188
0.976,0.107,0.043,5.005,-8.484,-7.874
0.98,0.085,0.035,4.7,-8.057,-9.399
0.996,0.091,0.062,4.211,-7.874,-9.033
0.997,0.074,0.079,4.15,-6.042,-8.423
0.99,0.057,0.046,4.272,-3.296,-6.592
0.992,0.079,-0.008,4.333,-2.197,-4.089
1.01,0.088,0.007,4.333,-2.808,-2.38
1.02,0.101,0.024,3.235,-2.258,-0.854
1.012,0.108,-0.002,2.38,0.305,0.244
1.006,0.107,-0.014,1.77,1.404,1.099
1.014,0.13,-0.006,1.526,0.061,2.319
1.025,0.152,0,0.488,0.183,2.808
1.005,0.139,-0.013,-1.221,1.831,2.136
0.994,0.126,-0.016,-2.319,2.136,0.916
1.043,0.187,-0.01,-1.648,-1.404,-0.549
1.026,0.123,0.017,0.854,-5.859,-6.592
0.978,0.065,0.022,1.465,-5.554,-10.864
0.938,0.03,0.038,1.709,-6.042,-10.071
0.922,0.012,0.034,2.38,-5.127,-8.545
0.937,0.03,0.034,2.563,-3.784,-6.165
0.953,0.041,0.055,2.258,-2.319,-4.7
0.947,0.042,0.05,2.319,-1.404,-4.089
0.941,0.048,0.02,2.625,-1.465,-3.662
0.932,0.046,0.014,2.686,-2.686,-3.052
0.931,0.034,0.027,2.502,-2.808,-2.258
0.968,0.063,0.033,2.258,-2.38,-0.916
0.993,0.076,0.043,2.686,-2.441,-0.732
1.001,0.075,0.047,2.563,-2.014,-1.282
1.003,0.078,0.046,1.099,-1.221,-0.61
1.009,0.093,0.046,-0.122,-0.305,0.671
0.999,0.091,0.021,-0.366,0.061,1.16
0.98,0.079,0.023,-0.427,-0.122,1.099
1.005,0.114,0.041,0.305,-1.038,0.793
0.991,0.089,0.055,2.319,-2.075,-1.77
0.978,0.108,0.015,2.441,-0.854,-2.075
0.962,0.125,-0.012,2.38,-1.587,-2.197
0.978,0.122,-0.009,1.587,-2.502,-3.479
0.992,0.109,0.028,0.977,-4.211,-4.456
0.983,0.086,0.03,0.732,-4.7,-5.31
0.972,0.056,0.034,0.916,-4.272,-5.92
0.981,0.039,0.073,0.793,-4.089,-5.493
0.993,0.028,0.104,0.732,-2.869,-4.089
0.997,0.031,0.085,1.465,-1.221,-2.258
1.016,0.044,0.064,2.075,0.305,-0.671
1.043,0.117,0.063,2.686,-0.488,-0.61
1.022,0.081,0.031,4.211,-2.197,-5.615
0.98,0.075,0.021,3.54,-1.404,-7.019
0.954,0.061,0.03,2.197,-1.343,-6.47
0.938,0.06,-0.002,1.709,-0.854,-5.188
0.929,0.042,0.006,1.892,-1.77,-4.272
0.924,0.028,0.031,1.404,-1.77,-2.869
0.956,0.034,0.032,0.854,-0.916,-0.549
0.991,0.047,0.054,0.305,-0.977,1.16
1.007,0.04,0.071,0.061,-0.366,1.343
1.003,0.036,0.071,0.183,0.732,2.258
1.052,0.122,0.042,1.587,0.549,3.113
1.066,0.121,0.041,4.211,-2.136,-1.343
1.024,0.112,0.024,4.822,-2.441,-5.249
0.998,0.089,0.024,4.028,-2.869,-6.653
0.993,0.083,0.026,2.625,-2.747,-6.653
0.999,0.082,0.048,1.77,-2.808,-5.859
0.98,0.086,0.032,1.282,-1.953,-5.615
0.958,0.075,0.024,1.038,-1.221,-6.348
0.946,0.053,0.046,1.282,-1.892,-6.653
0.918,0.043,0.046,1.465,-1.77,-5.066
0.905,0.04,0.003,0.977,-0.61,-3.296
0.925,0.044,0.016,0.427,-0.854,-1.587
0.972,0.074,0.06,0.671,-2.197,-0.793
1,0.067,0.074,1.099,-2.563,-1.587
0.99,0.056,0.074,0.305,-1.648,-1.953
0.988,0.057,0.057,-0.671,-1.099,-0.854
0.987,0.059,0.026,-1.343,-0.488,-0.427
0.977,0.045,0.026,-1.648,-0.549,-0.977
0.983,0.032,0.054,-1.892,-1.038,-1.038
0.995,0.027,0.089,-1.587,-1.16,-0.488
0.991,0.028,0.074,-1.099,-0.122,0.793
0.988,0.034,0.056,-0.366,0.671,1.892
1.014,0.045,0.094,0.122,0.61,2.93
1.024,0.058,0.08,0.305,2.014,3.662
1.052,0.09,0.039,0.854,2.563,2.991
1.041,0.078,0.087,2.075,-0.916,-0.854
1.017,0.067,0.045,2.991,-0.549,-3.784
0.977,0.057,0.013,3.113,-0.122,-4.883
0.948,0.046,0.01,2.625,0.244,-5.31
0.94,0.033,0.025,2.136,-0.427,-4.761
,,,,,
2.147,0.338,0.245,0.244,-18.127,9.033
2.185,0.439,0.152,2.136,-6.653,3.723
2.118,0.476,0.102,2.625,1.831,-3.662
1.981,0.417,0.018,1.831,11.292,-9.827
1.784,0.525,-0.078,-0.183,21.729,-9.644
1.501,0.531,-0.198,0.732,23.437,-17.395
1.166,0.476,-0.352,1.526,23.865,-30.823
0.857,0.346,-0.333,-0.305,18.188,-40.161
0.664,0.219,-0.197,-3.479,12.451,-42.114
0.562,0.123,-0.109,-4.761,8.728,-37.292
0.528,0.069,-0.085,-7.202,8.24,-29.724
0.506,0.053,-0.06,-9.216,8.545,-22.217
0.498,0.005,-0.015,-9.888,5.371,-18.799
0.589,-0.018,0.005,-7.996,-0.244,-16.785
0.568,-0.065,0.154,-4.639,-7.202,-14.954
0.646,-0.105,0.075,-3.235,-4.822,-12.512
0.714,-0.088,-0.004,-1.099,-2.38,-3.784
0.889,-0.067,0.018,-1.282,-4.639,4.089
1.091,-0.033,0.1,-2.441,-3.906,10.01
1.197,0.026,0.046,-2.502,-1.099,12.695
1.229,0.026,0.02,-1.404,-0.854,8.972
1.22,0.016,0.055,0,-1.587,3.845
1.164,0.018,0.021,2.258,0.854,1.648
1.088,0.034,-0.069,4.028,4.395,0.549
1.043,-0.031,-0.029,2.808,7.935,1.343
1.145,0.036,0.042,0.488,10.803,9.583
1.134,0.156,0.032,2.686,11.963,14.526
1.055,0.154,-0.102,5.554,14.404,7.935
0.941,0.129,-0.095,6.47,13.55,2.441
0.863,0.13,-0.084,5.92,10.559,2.258
0.793,0.117,-0.109,5.554,10.437,2.869
0.788,0.136,-0.127,4.7,9.399,4.883
0.899,0.183,-0.119,1.892,7.08,8.789
0.962,0.223,0.017,3.113,0.671,8.911
0.951,0.139,-0.007,4.272,1.953,4.456
0.959,0.152,-0.05,2.258,6.653,6.775
0.993,0.21,-0.059,0.549,5.737,11.658
0.994,0.237,-0.118,0.61,6.226,11.292
0.968,0.202,-0.172,1.343,5.249,6.592
0.953,0.148,-0.151,0.793,2.93,3.601
0.97,0.141,-0.13,0.244,0.793,4.883
1.007,0.143,-0.108,0.977,-1.099,6.165
1.054,0.144,-0.082,1.038,-1.953,6.531
1.089,0.153,-0.058,-0.061,-2.625,6.775
1.07,0.16,-0.063,0.183,-1.526,6.348
1.002,0.117,-0.053,0.793,-0.549,3.357
0.964,0.095,-0.059,0.305,2.441,3.418
0.948,0.125,-0.087,0.427,2.93,6.226
0.978,0.16,-0.109,1.465,1.038,6.042
1.002,0.144,-0.061,0.671,-1.648,3.174
1.034,0.142,-0.019,-0.305,-2.441,1.465
1.022,0.121,0.007,0.549,-4.028,-0.549
0.991,0.071,0.014,0.977,-2.93,-3.052
0.934,0.046,0.006,1.648,-0.977,-2.38
0.888,0.045,-0.036,2.197,1.16,0.488
0.882,0.065,-0.061,3.906,1.953,3.357
0.918,0.092,-0.083,3.418,2.991,6.165
0.975,0.179,-0.12,2.014,3.418,8.484
0.99,0.182,-0.107,1.892,0.671,6.042
0.997,0.152,-0.059,0.61,-0.977,2.502
0.993,0.138,-0.034,-0.366,-0.793,2.808
0.979,0.126,-0.058,-0.427,0.427,3.418
0.982,0.131,-0.05,0.793,-0.244,4.272
0.985,0.159,-0.073,2.625,-0.671,5.066
0.987,0.204,-0.115,4.456,-1.16,3.601
0.973,0.171,-0.114,4.333,-2.136,0.305
0.966,0.166,-0.094,1.77,-1.404,0.244
0.978,0.186,-0.101,0.061,-1.648,2.258
0.997,0.199,-0.082,-0.916,-2.747,1.77
0.992,0.189,-0.055,-1.282,-4.028,0.122
0.974,0.179,-0.051,-1.282,-3.601,-1.282
0.97,0.171,-0.062,-1.282,-3.357,-2.075
0.973,0.151,-0.035,-1.16,-3.723,-2.869
0.97,0.13,-0.022,-1.099,-3.235,-2.991
0.969,0.112,-0.042,-0.732,-1.404,-2.808
0.978,0.096,-0.026,-1.16,0.244,-2.258
0.984,0.102,-0.014,-1.892,2.014,-0.549
0.985,0.11,-0.066,-1.831,3.601,1.526
1.006,0.15,-0.066,0.122,1.526,1.16
0.986,0.124,-0.04,1.77,-1.404,-0.916
0.963,0.099,-0.028,2.93,-1.282,-2.136
0.976,0.115,-0.042,3.113,0.427,-1.465
1,0.13,-0.058,1.648,2.38,0
1.011,0.15,-0.058,0.549,3.113,0.732
1.011,0.148,-0.044,1.343,1.343,-0.671
0.992,0.142,-0.045,2.38,-0.122,-1.953
0.962,0.135,-0.072,2.625,0.061,-2.441
0.948,0.146,-0.102,2.197,0.671,-1.953
0.968,0.165,-0.093,1.526,0,-1.465
0.979,0.173,-0.084,1.404,-0.671,-1.831
0.96,0.152,-0.073,1.282,-0.732,-3.479
0.937,0.122,-0.036,1.526,-1.709,-4.456
0.912,0.104,-0.04,2.258,-1.404,-3.174
0.933,0.104,-0.056,1.648,-0.244,-0.854
0.976,0.14,-0.032,1.465,-0.61,1.953
0.987,0.159,-0.052,2.258,-0.854,1.831
0.98,0.148,-0.059,2.563,-0.549,-0.061
0.987,0.149,-0.051,2.441,-1.343,-0.916
0.998,0.143,-0.059,1.404,-1.282,-0.854
0.99,0.131,-0.049,-0.305,0.183,-0.793
1.033,0.154,-0.058,-0.854,1.404,0.305
1.024,0.161,-0.04,0.366,0.366,-0.427
1.016,0.133,-0.056,0.488,1.343,-2.38
1.01,0.138,-0.044,0.183,0.793,-1.77
0.991,0.147,-0.066,0.366,0.244,-0.916
0.971,0.157,-0.088,0.916,0.671,-1.77
0.948,0.152,-0.098,1.526,-0.061,-3.601
0.936,0.133,-0.092,2.136,-1.831,-5.188
0.924,0.107,-0.063,0.916,-2.686,-4.883
0.927,0.096,-0.042,0.183,-2.502,-2.869
0.943,0.091,-0.015,0.122,-1.831,-0.916
0.961,0.103,-0.021,0.732,0,1.282
0.975,0.126,-0.055,1.526,1.709,2.563
0.989,0.14,-0.072,1.282,1.282,2.319
0.99,0.134,-0.054,0.183,-0.366,1.953
0.996,0.157,-0.081,-1.282,-0.549,2.136
1.023,0.195,-0.073,-1.465,-1.526,0.488
1.005,0.148,-0.058,-1.038,-2.563,-3.845
0.96,0.106,-0.039,-0.977,-2.075,-5.005
,,,,,
2.2,0.474,0.186,-1.038,-41.138,25.024
2.234,0.534,0.209,0.977,-29.236,20.203
2.115,0.541,0.142,1.77,-18.311,10.071
1.853,0.495,0.038,2.258,-9.644,-2.502
1.615,0.382,0.044,1.77,-5.676,-13.611
1.299,0.29,0.086,-1.16,-1.892,-15.442
1.164,0.261,-0.035,-8.362,10.681,-10.071
1.186,0.362,0.002,-14.893,13.733,-4.944
1.143,0.285,0.134,-14.771,2.136,-13.794
0.958,0.118,0.218,-13.611,-2.258,-25.696
0.764,0.015,0.151,-12.695,-1.038,-27.71
0.634,-0.071,0.051,-10.681,0.671,-25.94
0.629,-0.143,0.082,-8.362,-1.587,-21.362
0.748,-0.14,0.134,-6.958,-2.747,-13.794
0.867,-0.078,0.123,-5.432,-2.869,-7.507
0.94,-0.095,0.143,-2.014,-4.822,-8.423
0.933,-0.141,0.214,-0.61,-3.296,-6.775
1.008,-0.051,0.136,-0.793,4.15,1.404
1.027,0.005,0.089,1.526,6.531,5.615
1.006,-0.007,0.042,2.563,7.568,4.517
0.977,0.04,0.035,1.099,9.644,8.667
1.012,0.156,-0.059,0.854,9.583,10.376
0.999,0.105,-0.049,5.066,1.465,2.991
0.966,0.075,0.014,5.737,-1.892,-0.244
0.967,0.126,0.058,3.418,-0.671,3.723
1.021,0.168,0.022,0.732,3.235,6.287
1.071,0.222,0.045,-0.061,2.258,7.446
1.095,0.257,0.057,-0.427,0.671,6.042
1.034,0.243,0.032,0,0.732,1.221
0.925,0.188,-0.008,1.343,0.427,-3.967
0.843,0.134,-0.018,3.052,-1.038,-6.104
0.821,0.108,0.002,3.479,-1.282,-4.456
0.882,0.149,-0.009,3.662,-0.488,-1.648
0.943,0.168,-0.005,5.676,-3.967,-2.502
0.954,0.136,0.032,6.287,-8.057,-6.287
0.942,0.097,0.054,4.395,-6.47,-5.005
0.988,0.152,0.002,0.977,-1.709,0.671
1.06,0.167,0.013,-1.343,-1.892,2.197
1.076,0.159,0.06,-1.282,-2.686,-0.305
1.019,0.133,0.02,-1.221,-1.892,-2.258
0.987,0.107,-0.03,-1.465,-1.282,-3.235
0.967,0.065,0.011,-1.465,-2.686,-3.052
1.002,0.066,0.064,-1.77,-2.136,-0.854
1.022,0.087,0.095,-1.831,-0.488,1.343
1.031,0.093,0.059,-2.502,2.625,2.38
1.004,0.083,0.036,-5.31,6.47,4.395
1.056,0.11,0.025,-7.019,7.263,7.202
1.042,0.143,0.061,-4.639,2.747,4.578
0.962,0.067,0.06,-0.061,-1.892,-4.211
0.848,0.031,0.012,2.563,-0.916,-6.592
0.815,0.035,-0.013,4.211,-1.221,-3.784
0.88,0.058,0.013,4.15,-2.502,-0.793
0.962,0.12,0.049,2.502,-2.502,2.38
0.998,0.117,0.067,1.587,-2.869,1.282
0.991,0.083,0.09,1.221,-2.319,-0.061
0.997,0.094,0.072,0.854,-0.366,2.38
0.993,0.1,0.036,1.282,2.075,3.784
1.014,0.109,0.018,1.343,2.93,4.333
1.01,0.166,0.051,2.991,0.427,3.296
0.977,0.131,0.005,5.249,-1.77,-1.587
0.939,0.114,-0.016,4.028,-0.793,-2.197
0.954,0.124,0.013,2.869,-1.526,-0.122
0.985,0.145,0.03,2.869,-2.075,0.732
1.004,0.151,0.026,3.54,-2.747,-0.549
1.005,0.14,0.029,3.784,-3.296,-2.258
1.005,0.121,0.038,2.869,-3.967,-3.479
1.012,0.116,0.078,1.282,-3.784,-2.991
1.013,0.12,0.071,0.488,-2.319,-2.258
1.008,0.128,0.044,1.038,-1.282,-2.563
0.979,0.134,0.024,2.197,-0.977,-3.967
0.941,0.109,0.011,3.174,-1.404,-6.165
0.933,0.09,0.025,3.54,-2.869,-6.897
0.936,0.096,0.05,2.441,-3.845,-4.944
0.946,0.102,0.024,0.671,-1.77,-2.991
0.978,0.106,0.043,-0.488,-0.916,-1.831
0.999,0.109,0.078,-0.793,-1.038,-1.16
0.993,0.124,0.038,0,-0.671,-1.343
0.984,0.103,0.03,0.854,-1.648,-3.235
0.973,0.108,0.048,0.244,-2.014,-2.869
0.97,0.111,0.019,-0.916,-0.671,-2.197
0.984,0.116,0.03,-1.465,-0.488,-2.38
0.994,0.122,0.032,-1.038,-1.892,-2.991
0.973,0.091,0.047,0.244,-2.93,-4.761
0.945,0.056,0.078,1.831,-3.357,-5.92
0.932,0.049,0.066,2.38,-2.258,-4.639
0.958,0.076,0.041,1.465,-1.099,-1.77
0.978,0.1,0.05,0.732,-1.038,0.122
0.988,0.104,0.051,0.61,-1.221,-0.366
0.986,0.106,0.058,0.244,-0.671,-0.671
0.977,0.109,0.044,-0.244,0.183,-0.549
0.97,0.107,0.031,-0.061,-0.366,-0.916
0.988,0.108,0.04,0.305,-1.831,-1.282
0.992,0.098,0.037,0.305,-1.648,-1.282
1,0.077,0.064,-0.671,-1.16,-1.099
1.012,0.086,0.092,-1.526,0.061,0.732
1.056,0.108,0.072,-2.014,2.747,2.258
1.073,0.172,0.06,-1.282,1.953,0.671
1.038,0.098,0.081,1.16,-2.258,-6.165
0.954,0.067,0.075,2.075,-1.648,-7.507
0.915,0.05,0.016,2.014,0.549,-5.493
0.916,0.073,0.046,3.235,-0.61,-3.54
0.894,0.094,0.003,3.845,-0.916,-1.892
0.874,0.08,-0.033,3.662,-0.793,-2.258
0.952,0.11,0.006,2.197,-3.418,-1.526
0.999,0.102,0.078,1.465,-6.775,-1.526
1.022,0.068,0.095,0.732,-5.188,-2.563
1.015,0.053,0.119,-0.244,-1.892,-1.404
0.998,0.032,0.092,-1.16,2.258,1.038
0.996,0.038,0.072,-1.77,3.906,4.639
1.082,0.137,0.051,-1.831,4.456,8.301
1.064,0.155,0.05,0.488,1.709,4.761
1.015,0.078,0.027,2.319,-0.488,-3.418
0.965,0.07,0.061,2.197,-0.793,-3.54
0.946,0.074,0.022,0.732,1.587,-1.404
0.967,0.102,0.027,0.122,1.953,-0.061
0.978,0.116,0.044,-0.427,1.343,0.549
0.968,0.106,0.052,0.305,0.366,-0.61
0.958,0.102,0.056,2.197,-0.671,-1.831
0.953,0.097,0.045,3.296,-0.854,-2.258
,,,,,
1.718,0.565,-0.302,11.353,-2.197,24.048
1.683,0.501,-0.159,4.761,-10.498,15.198
1.591,0.455,-0.032,0.183,-14.221,9.827
1.486,0.396,-0.027,-2.075,-11.108,3.845
1.458,0.395,0.012,-4.395,-8.606,0.732
1.49,0.41,0.047,-7.385,-6.592,-1.099
1.435,0.387,0.003,-11.475,-1.587,-5.615
1.334,0.296,0.016,-17.761,0.977,-11.719
1.198,0.214,0.003,-21.912,-1.343,-15.808
1.059,0.042,0.04,-22.034,-3.418,-21.362
0.954,-0.13,0.193,-20.203,-4.578,-22.034
0.875,-0.142,0.133,-17.578,1.404,-13.306
0.855,-0.119,-0.002,-12.878,4.7,-7.568
0.896,-0.159,0.029,-8.606,-0.61,-7.935
0.936,-0.208,0.115,-5.615,-6.042,-5.92
0.981,-0.24,0.21,-3.357,-5.432,-0.732
1.138,-0.089,0.237,-2.93,1.465,7.935
1.155,0.006,0.129,1.77,7.446,10.193
1.103,0.008,0.012,5.31,9.216,3.296
1.03,0.055,-0.006,5.981,6.897,0.488
0.96,0.079,-0.068,4.089,7.507,0.61
0.911,0.134,-0.164,2.136,7.568,0.671
0.914,0.13,-0.098,1.831,1.465,-0.549
0.947,0.157,0.013,2.869,-2.441,0
0.989,0.193,-0.021,2.625,-0.549,1.953
0.996,0.242,-0.074,0,2.686,3.906
0.977,0.271,-0.037,-1.343,2.319,3.296
0.913,0.262,-0.049,-1.038,1.77,-0.244
0.812,0.199,-0.107,0.427,1.587,-4.822
0.793,0.159,-0.111,0.488,-0.793,-6.531
0.902,0.214,-0.107,0.244,-5.92,-4.761
0.913,0.146,-0.022,1.343,-15.442,-7.874
0.952,0.071,0.005,-1.648,-15.259,-8.911
0.995,0.071,0.018,-3.784,-11.292,-2.014
1.078,0.087,0.048,-3.418,-9.399,2.319
1.123,0.117,0.061,-2.075,-6.592,2.808
1.049,0.103,0.006,-1.892,-2.197,0.916
0.973,0.04,-0.037,-2.808,2.136,-0.549
0.968,0.085,-0.015,-3.662,2.869,3.723
1.037,0.159,-0.023,-3.174,1.404,4.333
1.031,0.163,0.003,0.366,-2.502,-1.526
0.974,0.095,-0.037,1.587,-3.54,-7.874
0.936,0.048,-0.018,0.916,-2.93,-7.568
0.959,0.03,-0.013,-0.427,-2.014,-4.211
1,0.057,0.009,-0.61,-2.197,-0.305
1.018,0.076,0.005,0.427,-1.953,1.038
1.032,0.073,0.004,1.282,-2.258,-0.366
1.042,0.104,0.015,2.075,-2.686,-1.404
1.02,0.112,0.006,2.441,-3.723,-3.052
0.986,0.138,-0.032,1.831,-3.967,-4.883
0.938,0.134,-0.045,1.526,-5.066,-6.653
0.891,0.108,-0.054,1.587,-5.249,-7.935
0.901,0.094,-0.032,1.709,-5.798,-7.568
0.941,0.109,0.021,1.587,-5.981,-5.371
0.945,0.115,0.002,2.075,-4.7,-4.272
0.935,0.083,0.001,2.197,-4.211,-4.578
0.939,0.08,0.015,2.319,-3.967,-3.723
0.95,0.09,0.011,1.526,-2.563,-1.953
0.969,0.118,-0.028,0.732,-1.953,-0.916
0.99,0.095,0.003,1.16,-4.15,-2.197
1.001,0.07,0.056,1.221,-5.066,-2.686
1.011,0.07,0.046,0.854,-3.54,-1.648
1.004,0.068,0.035,-0.244,-0.977,-0.183
0.996,0.069,0.037,-0.854,1.099,1.465
0.978,0.101,-0.003,-0.916,3.418,3.113
1.013,0.172,-0.049,-0.732,2.502,2.686
0.967,0.131,-0.048,0.488,-2.136,-1.831
0.928,0.09,-0.052,0.244,-3.967,-5.127
0.951,0.08,-0.005,0.488,-5.127,-5.005
0.982,0.056,0.057,1.221,-6.531,-4.944
0.994,0.036,0.074,1.404,-6.47,-3.723
0.989,0.061,0.032,1.221,-4.272,-0.549
0.991,0.075,0.015,1.221,-2.747,0.977
1.006,0.103,0.029,0.793,-2.136,1.648
1.022,0.123,0.021,-0.122,-0.671,1.77
1,0.167,-0.008,0.427,-1.587,-0.549
0.96,0.12,-0.05,2.563,-5.676,-6.531
0.937,0.094,-0.038,2.319,-6.348,-8.423
0.951,0.056,0.015,1.343,-5.798,-6.958
0.971,0.038,0.062,0.854,-5.188,-5.066
1,0.03,0.083,0.854,-4.211,-2.441
1.012,0.057,0.053,-0.427,-0.732,1.282
1.075,0.102,0.01,-1.038,2.075,3.54
1.094,0.1,0.062,0.488,-0.427,1.465
1.064,0.094,0.06,1.892,-1.404,-2.258
1.02,0.105,0.009,2.258,0.305,-4.028
0.979,0.091,-0.022,1.465,1.16,-5.737
0.958,0.086,-0.002,0.977,-0.305,-5.981
0.948,0.095,0.014,0.671,-0.61,-5.188
0.928,0.112,-0.002,0.427,0.183,-5.066
0.888,0.113,-0.051,0.916,0.244,-5.615
0.868,0.083,-0.062,1.221,-1.648,-6.653
0.908,0.043,0.014,0.122,-4.211,-5.31
0.964,0.072,0.058,-0.793,-5.31,-1.831
1.014,0.072,0.053,-0.916,-4.7,-1.282
1.035,0.079,0.054,-1.587,-2.197,-0.488
1.009,0.075,0.036,-2.686,0.916,1.343
0.996,0.057,0.033,-3.235,3.174,2.136
0.99,0.065,0.031,-3.052,3.54,3.235
1.019,0.128,-0.021,-2.563,3.784,4.272
0.982,0.091,0.011,-0.549,-0.61,-0.061
0.937,0.042,0.021,-0.488,-2.014,-3.296
0.92,0.06,0.009,-1.221,-1.038,-0.61
0.951,0.09,0.003,-1.404,-0.488,0.854
0.977,0.109,-0.003,-0.549,-2.686,-0.305
0.979,0.081,-0.002,-0.549,-4.211,-2.38
0.979,0.051,0.035,-0.427,-5.31,-3.357
0.982,0.04,0.068,0.427,-5.127,-2.869
0.98,0.047,0.029,0.916,-3.235,-1.465
0.988,0.064,-0.01,1.282,-2.747,-0.244
1.006,0.059,0.011,0.977,-4.028,0.549
1.029,0.066,0.079,-1.038,-4.028,2.136
1.011,0.055,0.059,-2.502,0.183,3.052
0.988,0.049,0.025,-3.601,4.211,4.028
0.971,0.07,0.021,-3.601,4.7,5.981
1.001,0.108,0.013,-2.319,3.723,5.676
1.013,0.099,0.044,-0.183,0.854,2.319
1.018,0.073,0.044,0.244,-1.343,-0.671
1.001,0.064,0.063,0.061,-1.648,-0.122
,,,,,
1.733,0.663,-0.324,6.104,-50.537,28.687
1.849,0.665,-0.179,9.155,-65.857,8.606
1.783,0.476,-0.049,7.568,-72.144,-9.827
1.657,0.288,-0.05,2.075,-61.157,-19.165
1.702,0.127,0.138,-4.639,-48.645,-17.09
1.758,0.096,0.321,-7.263,-36.804,-6.897
1.796,0.19,0.121,-5.859,-19.226,0.732
1.816,0.224,0.026,-10.681,-12.573,-0.671
1.775,0.25,0.125,-14.465,-18.982,-5.493
1.587,0.146,0.143,-17.7,-22.522,-17.334
1.402,-0.004,0.205,-18.188,-20.447,-29.236
1.241,-0.178,0.346,-16.052,-17.456,-32.166
1.096,-0.215,0.304,-11.719,-10.62,-27.161
0.936,-0.269,0.137,-7.996,-2.38,-21.179
0.937,-0.285,0.143,-7.08,2.38,-13.733
1.049,-0.219,0.24,-8.545,3.906,-3.601
1.104,-0.135,0.269,-5.737,2.625,2.258
1.087,-0.102,0.184,-1.465,1.465,-0.305
1.039,-0.08,0.16,3.479,0.916,-2.93
0.939,-0.075,0.166,7.08,2.136,-4.517
0.827,-0.035,-0.072,10.071,6.287,-4.7
0.808,0.025,-0.167,8.972,6.165,-4.578
0.873,0.074,-0.074,7.874,3.235,-3.845
0.935,0.143,-0.067,7.507,4.639,0.671
1.028,0.242,-0.14,2.197,8.362,5.066
1.124,0.224,-0.02,-0.488,7.202,4.7
1.146,0.228,0.088,0.183,4.395,3.845
1.063,0.235,-0.037,-1.038,5.554,1.343
0.966,0.183,-0.073,-1.282,5.432,-3.235
0.922,0.13,-0.046,-0.366,2.93,-5.371
0.919,0.103,-0.011,-0.916,1.831,-4.7
0.923,0.102,-0.028,-2.258,2.441,-3.174
0.936,0.084,-0.005,-3.54,2.258,-2.747
0.972,0.071,0.016,-4.883,1.282,-2.563
0.99,0.038,0.076,-4.883,-1.038,-1.953
0.966,0.029,0.061,-5.371,-0.244,-0.488
0.976,0.051,0.008,-5.615,1.404,0.732
0.967,0.034,0.025,-2.502,-1.526,-2.136
0.955,-0.021,0.042,-0.305,-4.944,-5.981
0.944,-0.038,0.071,-0.732,-3.418,-3.662
0.979,-0.01,0.077,-0.977,0.244,0.977
1.016,0.045,0.018,0.427,3.235,3.723
1.045,0.084,-0.015,1.282,2.38,4.089
1.029,0.103,-0.016,2.075,0.916,2.563
0.977,0.128,-0.051,1.953,0.549,0.244
0.898,0.116,-0.102,1.221,-0.549,-2.38
0.851,0.102,-0.062,0.61,-3.845,-3.784
0.907,0.103,-0.053,1.282,-7.019,-3.54
0.968,0.106,-0.002,2.93,-11.902,-2.747
1.016,0.075,0.037,3.113,-14.465,-2.808
1.103,0.059,0.066,-1.526,-7.446,1.526
1.084,0.077,0.082,-4.333,0.732,6.531
1.011,0.042,0.002,-5.249,5.188,6.836
1.023,0.161,-0.133,-6.042,7.202,7.507
0.985,0.129,-0.072,-2.136,-3.052,0.732
0.948,0.028,0.03,-0.732,-10.01,-7.202
0.912,0,0.072,-0.366,-8.301,-5.066
0.938,0.005,0.068,-0.916,-2.869,-1.953
0.99,0.036,0.065,0.793,-1.709,0.488
1.006,0.058,0.06,2.747,-1.892,0.854
0.996,0.062,0.042,4.272,-1.648,-1.404
0.973,0.069,-0.016,3.967,-1.526,-2.502
0.985,0.083,0.005,0.732,-1.831,-1.953
0.994,0.092,-0.016,-1.404,-1.892,-0.793
0.969,0.1,-0.045,-2.502,-1.77,-0.854
0.952,0.088,-0.022,-2.808,-2.869,-1.77
0.958,0.101,0.009,-2.686,-4.211,-1.465
0.966,0.13,0,-1.526,-5.615,-1.343
0.987,0.118,0.022,0.183,-7.874,-4.7
1.006,0.09,0.048,1.282,-8.972,-7.629
1.018,0.071,0.078,0.671,-8.179,-8.057
1.01,0.062,0.07,-0.854,-5.127,-6.592
0.995,0.069,0.009,-2.38,-2.014,-5.127
1.005,0.041,0.048,-3.54,-1.953,-4.517
0.988,0.021,0.073,-4.333,-1.343,-3.052
0.975,0.029,0.042,-4.944,1.282,-1.526
0.978,0.019,0.044,-3.845,0.977,-1.16
0.994,0.001,0.06,-3.479,0.732,0
1.123,0.056,0.04,-2.686,2.014,1.404
1.11,0.029,0.086,1.221,-0.977,-1.587
1.059,-0.015,0.096,2.747,-1.648,-6.714
1.022,0.029,0.043,3.54,1.892,-5.188
1.032,0.074,-0.035,2.747,3.662,-4.761
1.036,0.12,-0.052,1.404,1.038,-6.165
1.024,0.116,-0.003,0,-1.038,-9.46
1.014,0.1,0.048,0.366,-2.563,-13.672
0.977,0.079,0.018,1.77,-3.296,-16.663
0.926,0.02,0.044,3.723,-4.7,-18.799
0.899,-0.009,0.074,5.005,-4.395,-17.517
0.903,0,0.015,5.066,-1.77,-13.306
0.944,0.008,0.04,4.272,-1.16,-9.644
0.925,0.026,0.04,3.357,-0.854,-6.348
0.864,-0.001,0.044,3.418,0,-5.798
0.825,0.008,0.013,2.563,1.587,-3.601
0.882,0.093,-0.093,1.16,2.563,1.77
0.881,0.126,-0.079,2.319,-3.601,1.465
0.897,0.007,-0.022,1.282,-8.179,-3.723
0.9,-0.023,0.067,-1.953,-4.822,0.916
0.994,0.014,0.06,-3.906,-1.892,7.812
1.067,0.044,0.051,-3.54,-2.38,9.705
1.109,0.052,0.047,-3.662,-2.502,8.423
1.128,0.017,0.086,-2.991,-1.892,5.31
1.054,-0.04,0.133,-1.404,-1.526,2.93
0.987,-0.078,0.113,-0.916,2.808,4.15
1.007,0.02,0.034,-0.61,8.057,9.705
1.037,0.111,-0.018,1.526,5.493,8.179
1.021,0.052,0.051,4.456,-2.869,-1.099
0.957,0.018,0.077,4.028,-2.991,-5.005
0.896,-0.002,0.013,2.075,1.221,-3.662
0.886,-0.002,0.014,0.793,1.953,-0.427
0.939,0.056,0.005,0.488,1.221,4.028
0.986,0.096,-0.005,0.549,0.549,4.883
1.045,0.086,0.057,1.343,-2.136,1.77
1.05,0.083,0.066,1.404,-1.831,1.526
1.036,0.077,0.035,0,2.197,1.953
1.11,0.131,-0.018,-1.221,4.578,1.587
1.042,0.113,0.042,0.61,-0.793,-2.38
0.953,0.042,0.01,1.282,-3.052,-8.179
0.869,0.028,-0.018,-0.244,-1.404,-6.287
,,,,,
3.085,0.496,0.626,-27.71,-42.48,93.079
3.393,0.716,0.475,-23.071,-10.193,94.727
3.455,0.911,0.143,-21.24,14.587,73.425
3.252,0.909,-0.07,-15.015,17.334,32.288
2.815,0.75,-0.127,-11.78,4.639,-14.038
2.367,0.497,-0.062,-15.32,-4.028,-51.392
1.889,0.362,0.033,-15.686,-4.517,-70.374
1.459,0.186,0.083,-12.939,1.648,-87.28
1.036,0.026,0.073,-10.62,12.268,-98.389
0.673,-0.112,0.037,-10.01,23.071,-99.182
0.518,-0.19,0.048,-9.827,27.893,-90.759
0.378,-0.225,0.061,-5.798,25.085,-75.562
0.266,-0.232,0.081,-2.075,20.569,-59.326
0.32,-0.164,0.024,-2.014,20.447,-44.006
0.29,-0.14,0.013,0.366,16.663,-33.691
0.362,-0.135,-0.019,-0.793,11.353,-25.085
0.468,-0.086,-0.025,-0.793,4.272,-16.602
0.515,-0.077,-0.026,-1.526,0.244,-10.864
0.545,-0.119,-0.031,-1.282,-1.465,-7.812
0.602,-0.152,-0.02,0.427,-3.723,-3.54
0.699,-0.169,0.01,2.014,-7.385,1.587
0.833,-0.155,0.052,4.7,-10.498,9.766
0.981,-0.112,0.057,5.127,-10.193,19.287
1.09,-0.059,0.031,3.479,-6.836,27.283
1.232,0.021,0.013,1.404,-3.357,32.227
1.319,0.082,-0.033,0.61,0,33.142
1.364,0.129,-0.06,-0.061,0.366,29.846
1.367,0.136,-0.072,-0.549,-0.671,21.912
1.347,0.15,-0.063,-0.732,-2.258,13.977
1.299,0.13,-0.046,-1.709,-2.93,6.409
1.208,0.098,-0.002,-2.258,-3.357,0.61
1.155,0.089,-0.025,-3.113,-1.77,-1.831
1.085,0.106,0.008,-2.014,-3.174,-3.113
1.006,0.106,0,0.061,-3.235,-6.47
0.926,0.084,-0.033,1.404,-2.014,-10.437
0.868,0.068,-0.05,1.587,-1.831,-10.986
0.848,0.071,-0.051,0.793,-2.014,-8.179
0.858,0.072,-0.053,-0.427,-1.587,-5.31
0.869,0.075,-0.064,-1.404,-1.587,-3.052
0.933,0.098,-0.092,-1.282,-3.296,-1.465
0.942,0.091,-0.076,0.244,-9.094,-2.075
0.929,0.031,-0.057,0.183,-14.404,-3.845
0.949,0.051,-0.042,-0.916,-16.113,-1.282
0.954,0.061,-0.022,-1.404,-13.489,1.16
0.964,0.041,-0.059,-0.854,-7.385,0.061
0.977,0.045,-0.068,-2.258,-6.104,1.648
1,0.051,-0.045,-3.296,-8.179,3.723
1.008,0.053,-0.003,-4.089,-9.338,4.272
0.996,0.031,-0.022,-3.662,-6.714,3.479
1.005,0.031,-0.033,-3.601,-5.859,4.272
1.026,0.045,-0.006,-3.906,-8.484,6.226
1.04,0.034,0.024,-3.723,-9.705,6.042
1.022,0.036,0.031,-3.54,-7.263,4.456
1.008,0.014,0.034,-3.662,-5.005,2.258
0.988,0.001,0.041,-1.77,-4.7,1.343
0.977,-0.01,0.029,-0.305,-4.089,1.831
0.985,0.013,0.02,0.305,-2.869,4.15
0.991,0.036,0.012,0.366,-1.709,5.798
0.989,0.058,0.001,0,-0.732,5.432
0.986,0.075,-0.017,1.587,-1.831,3.601
0.978,0.065,-0.009,4.089,-4.333,0.671
0.971,0.057,0.006,4.395,-5.066,0.183
0.979,0.067,-0.006,4.395,-3.357,1.343
0.987,0.082,-0.022,3.784,-2.441,2.075
0.996,0.089,-0.024,2.747,-3.174,2.197
0.992,0.102,-0.034,1.16,-2.93,2.38
0.986,0.087,-0.032,0.854,-2.869,1.77
0.987,0.077,-0.021,0.61,-4.456,1.709
0.991,0.071,-0.003,-0.061,-6.531,2.747
0.98,0.048,0.011,-1.343,-7.385,4.333
0.99,0.084,0.062,-1.587,-7.874,6.653
0.995,0.048,0.046,0.549,-4.395,4.211
0.978,0.039,0.032,1.892,-2.441,2.808
0.964,0.048,0.004,2.991,-2.441,3.967
0.971,0.045,-0.029,2.563,-2.93,4.761
0.982,0.071,-0.006,0.305,-4.272,6.47
1,0.074,0.017,-1.099,-4.089,6.165
1.001,0.06,0.025,-1.099,-3.418,4.456
0.974,0.045,0.016,-1.038,-3.845,4.272
0.977,0.089,0.019,-0.549,-3.967,5.737
0.985,0.085,-0.005,1.465,-1.892,2.991
0.979,0.056,-0.004,2.136,-2.136,0
0.987,0.074,0.022,1.831,-4.272,0.793
0.99,0.077,0.024,1.77,-3.906,0.916
0.995,0.071,0.01,1.343,-2.197,-0.122
0.997,0.076,0.012,0.671,-1.526,0.854
0.998,0.079,0.03,0.305,-0.854,1.953
0.998,0.077,0.016,0.183,0.427,2.197
1.025,0.104,-0.013,0.427,0.244,2.563
1.006,0.1,0.005,1.526,-2.869,1.16
0.989,0.092,0.016,0.793,-3.723,-0.61
0.967,0.075,0.006,-0.122,-2.197,-0.671
0.962,0.082,0.009,-0.793,-1.709,-0.122
0.957,0.073,0.007,-0.244,-1.709,-0.183
0.956,0.074,0.001,-0.122,-1.648,0.061
0.965,0.073,-0.001,0,-1.831,0.793
0.982,0.082,0.011,0.549,-2.93,1.709
0.997,0.082,0.016,0.793,-4.028,1.587
1.001,0.093,0.02,0.427,-3.174,1.16
0.997,0.09,0.009,0.366,-1.77,0.488
0.992,0.085,0.009,0,-1.16,-0.549
0.988,0.083,0.013,-0.549,-0.854,-0.916
0.984,0.081,0.014,-0.793,-0.732,-0.671
0.987,0.08,0.018,-0.671,-0.854,-0.732
0.984,0.07,0.031,-0.366,-1.038,-0.854
0.99,0.064,0.034,-0.183,-0.793,-0.671
0.99,0.065,0.026,0.427,-0.488,-0.244
0.989,0.071,0.019,0.244,-0.427,0.061
0.985,0.073,0.012,-0.793,-0.183,0.122
0.973,0.065,0.005,-1.587,0,0.061
0.963,0.052,0.015,-2.014,-1.648,0
0.964,0.049,0.021,-1.648,-3.418,0.793
0.986,0.062,0.029,-1.648,-3.418,2.014
0.97,0.042,0.032,-1.77,-2.625,2.38
0.985,0.055,0.045,-1.587,-2.747,3.906
0.989,0.065,0.039,-1.343,-1.831,3.723
0.99,0.073,0.017,-0.549,-0.244,3.174
0.995,0.08,0.012,-0.122,0.122,2.38
0.992,0.072,0.017,-0.061,-0.366,1.465
,,,,,
2.295,0.538,0.491,-14.404,-54.565,69.458
2.31,0.544,0.532,-6.653,-58.228,58.716
2.307,0.488,0.549,2.441,-56.519,43.213
2.272,0.495,0.526,6.042,-46.57,35.095
2.21,0.525,0.45,5.127,-29.236,32.166
2.128,0.563,0.323,3.479,-12.878,26.794
1.981,0.603,0.205,1.404,-3.906,17.639
1.728,0.522,0.124,-3.113,1.77,4.333
1.536,0.557,0.033,-10.376,9.888,-5.188
1.353,0.491,0,-10.559,8.545,-18.677
1.147,0.379,0.044,-11.475,1.16,-35.4
0.948,0.248,0.112,-10.437,-3.479,-47.058
0.775,0.106,0.156,-10.315,-2.563,-53.223
0.632,-0.014,0.198,-9.216,-0.305,-53.101
0.544,-0.106,0.183,-9.277,5.005,-46.997
0.499,-0.141,0.145,-10.376,9.888,-35.706
0.49,-0.117,0.098,-7.629,11.108,-21.423
0.652,-0.017,0.032,-5.005,9.705,-9.277
0.621,0.015,0.071,-0.793,1.099,-5.31
0.67,0.017,0.069,0.916,-2.563,-6.836
0.673,0.03,0.021,1.892,-0.488,-5.127
0.712,0.034,0.01,2.014,-1.282,-3.296
0.742,0.021,0.058,2.686,-6.165,-2.441
0.776,-0.006,0.1,3.662,-9.644,-0.61
0.817,-0.008,0.127,2.38,-9.949,3.967
0.897,-0.001,0.166,1.221,-9.094,11.108
1.005,0.063,0.193,1.587,-7.263,19.958
1.113,0.126,0.189,2.563,-4.089,26.123
1.197,0.176,0.178,2.075,-2.136,28.137
1.27,0.232,0.157,0.244,-0.366,27.649
1.316,0.28,0.134,-1.404,0.916,24.658
1.332,0.322,0.123,-2.075,0.488,18.372
1.319,0.311,0.118,-0.549,-0.854,9.46
1.121,0.213,0.148,-0.549,-0.305,1.709
1.217,0.245,0.062,-7.019,9.277,1.77
1.129,0.247,0.048,-6.165,10.01,4.944
1.086,0.241,0.109,-6.165,4.15,1.404
1.051,0.246,0.143,-3.357,1.282,-1.831
0.998,0.215,0.08,-2.93,6.531,-4.7
0.94,0.186,0.048,-1.892,7.08,-7.141
0.901,0.164,0.039,-1.526,3.296,-7.446
0.906,0.177,0.042,-2.075,0.427,-5.859
0.906,0.182,0.052,-3.479,-0.549,-4.639
0.896,0.164,0.064,-3.906,-1.404,-5.615
0.881,0.144,0.063,-3.174,-2.197,-6.409
0.87,0.123,0.054,-2.075,-2.441,-6.104
0.876,0.113,0.05,-2.319,-2.075,-4.456
0.9,0.117,0.059,-3.357,-1.831,-1.831
0.937,0.139,0.078,-4.517,-1.831,0.305
0.963,0.153,0.101,-4.944,-2.075,0.488
0.973,0.158,0.104,-4.15,-2.808,-1.343
0.972,0.146,0.104,-2.38,-3.967,-3.418
0.954,0.121,0.116,-1.221,-4.7,-4.761
0.948,0.113,0.138,-0.793,-4.578,-4.333
0.951,0.107,0.145,0.122,-2.747,-2.808
0.95,0.115,0.116,0.977,0.183,-1.221
0.949,0.129,0.089,1.953,1.587,0.427
0.963,0.151,0.075,1.709,1.099,1.953
0.969,0.175,0.077,0.793,0.305,2.747
0.97,0.172,0.084,0.488,0.305,1.709
0.959,0.152,0.089,1.221,0.061,-0.122
0.95,0.139,0.103,1.709,-0.244,-0.183
0.944,0.141,0.107,2.258,0,1.282
0.953,0.158,0.093,1.709,1.099,3.601
0.967,0.186,0.093,0.977,0.977,5.493
0.979,0.197,0.095,1.648,0.061,5.005
0.98,0.193,0.085,2.808,0.183,2.991
0.987,0.198,0.068,2.563,0.366,1.77
0.994,0.204,0.07,1.465,-0.366,1.16
0.99,0.202,0.075,-0.122,-1.099,0.244
0.989,0.193,0.09,-1.343,-2.014,-1.404
0.984,0.185,0.093,-0.732,-3.174,-3.052
0.98,0.174,0.084,0.061,-3.418,-4.517
0.964,0.157,0.089,0.244,-3.113,-5.066
0.959,0.146,0.097,-0.366,-2.991,-4.395
0.962,0.146,0.111,-0.854,-2.441,-3.174
0.969,0.15,0.109,-1.038,-1.77,-2.197
0.966,0.16,0.114,-1.099,-2.014,-1.526
0.964,0.155,0.13,-0.793,-2.075,-2.563
0.965,0.141,0.111,0.793,-0.671,-4.211
0.96,0.134,0.098,1.404,0,-4.333
0.961,0.135,0.098,1.221,0.122,-3.601
0.97,0.137,0.096,0.427,0.183,-2.686
0.979,0.14,0.104,-0.427,-0.305,-1.892
0.981,0.136,0.119,-0.671,-0.916,-1.648
0.97,0.126,0.122,-0.671,-0.122,-1.343
0.965,0.132,0.106,-0.549,1.831,-0.305
0.971,0.155,0.092,-0.61,2.808,0.854
0.974,0.169,0.083,-0.916,2.991,1.221
0.961,0.172,0.08,-1.038,2.686,0.061
0.95,0.16,0.079,0.122,1.648,-1.587
0.937,0.156,0.078,0.793,1.099,-2.258
0.938,0.164,0.069,0.854,1.221,-2.014
0.931,0.172,0.061,0.488,0.916,-1.77
0.924,0.168,0.058,0.366,-0.061,-1.892
0.923,0.161,0.065,0.122,-0.916,-1.77
0.93,0.168,0.066,-0.854,-1.343,-1.16
0.952,0.186,0.07,-0.916,-1.465,-0.854
0.961,0.174,0.086,0.854,-2.747,-2.136
0.971,0.156,0.108,1.648,-4.272,-3.784
0.973,0.152,0.115,2.319,-4.15,-3.845
0.968,0.153,0.096,2.258,-2.93,-3.601
0.964,0.15,0.085,2.136,-2.747,-3.418
0.969,0.146,0.092,1.648,-3.54,-2.869
0.971,0.138,0.113,1.099,-4.333,-2.38
0.97,0.129,0.118,0.671,-3.235,-1.892
0.97,0.132,0.11,0,-1.831,-1.038
0.969,0.139,0.101,0.122,-0.732,-0.183
0.967,0.135,0.101,0.366,-0.061,0.244
0.966,0.133,0.1,0.427,0.183,0.427
0.97,0.14,0.104,0.244,-0.244,1.038
0.974,0.145,0.109,-0.244,-0.061,1.465
0.973,0.147,0.105,-0.793,0.732,1.587
0.966,0.147,0.097,-1.404,1.953,1.831
0.965,0.151,0.084,-1.587,2.136,2.014
0.964,0.157,0.09,-1.77,1.221,2.075
0.959,0.157,0.101,-1.709,0,1.831
0.957,0.156,0.1,-0.732,-0.793,0.916
0.958,0.149,0.095,0.977,-0.854,-0.183
,,,,,
1.869,0.797,0.114,-20.508,-49.438,67.139
1.82,0.725,0.167,-18.127,-59.204,42.603
1.781,0.598,0.182,-9.705,-65.125,21.729
1.68,0.484,0.208,-0.366,-63.599,17.7
1.758,0.505,0.183,3.784,-55.176,26.733
1.845,0.562,0.173,7.446,-41.992,40.649
2.054,0.605,0.187,5.676,-28.503,48.523
2.127,0.745,0.112,1.465,-17.029,48.645
2.097,0.825,0,-0.549,-7.263,39.246
1.978,0.801,-0.079,-2.686,-4.15,18.372
1.722,0.684,-0.102,-6.836,-5.371,-2.686
1.565,0.598,-0.07,-12.39,-6.958,-18.372
1.365,0.486,0.022,-15.32,-9.766,-32.776
1.148,0.365,0.093,-15.259,-7.812,-48.279
0.935,0.214,0.128,-13.733,-0.793,-58.838
0.766,0.058,0.135,-9.216,7.08,-61.401
0.639,-0.055,0.146,-5.31,9.705,-56.763
0.598,-0.114,0.148,-2.747,9.338,-45.837
0.591,-0.091,0.131,-0.305,9.46,-31.494
0.625,-0.037,0.079,-0.122,11.719,-17.578
0.664,0.035,0.047,-0.854,10.925,-6.836
0.688,0.075,0.015,-0.793,8.362,-3.235
0.852,0.135,-0.049,0.977,4.15,-0.977
0.748,0.165,0.009,1.831,-4.333,-1.648
0.779,0.141,0.019,1.709,-6.104,-3.479
0.786,0.141,0.007,2.747,-2.075,-1.77
0.854,0.158,-0.018,3.662,2.808,3.418
0.933,0.186,-0.016,3.357,3.54,8.545
1.019,0.22,0.016,3.54,1.648,12.817
1.081,0.267,0.032,3.845,0.977,14.587
1.118,0.295,0.023,4.883,2.014,13.367
1.138,0.321,-0.002,5.31,3.601,10.559
1.16,0.35,-0.027,4.7,3.967,7.629
1.026,0.359,0.006,3.052,3.296,3.784
1.104,0.319,-0.048,1.282,8.484,0.305
1.085,0.348,-0.053,-0.549,11.23,-0.671
1.067,0.322,-0.045,-0.732,5.554,-3.845
1.014,0.29,-0.013,-1.404,1.16,-7.874
0.98,0.275,0.005,-2.319,0.977,-8.728
0.957,0.259,-0.005,-2.808,3.54,-8.85
0.934,0.249,-0.026,-2.991,4.517,-9.521
0.906,0.235,-0.039,-2.808,3.601,-9.644
0.883,0.222,-0.028,-2.441,0.427,-9.338
0.907,0.214,-0.015,-2.563,-1.282,-8.118
0.889,0.209,-0.008,-2.686,-1.526,-7.446
0.876,0.191,-0.007,-2.38,-0.977,-7.019
0.866,0.184,-0.029,-1.77,0.366,-5.493
0.867,0.178,-0.02,-1.221,1.038,-3.235
0.897,0.178,-0.011,-0.244,0.122,-1.526
0.937,0.191,-0.006,1.404,-1.038,-0.488
0.937,0.194,0.022,2.197,-2.441,-0.732
0.943,0.187,0.027,2.441,-1.526,-1.526
0.943,0.192,0.004,2.93,1.099,-1.709
0.934,0.184,-0.006,4.211,0.854,-1.953
0.928,0.174,0.009,5.432,-1.343,-1.831
0.942,0.196,0.019,5.493,-1.892,0.427
0.963,0.227,0.011,5.249,-0.61,2.869
0.987,0.236,-0.002,5.493,0.549,2.93
0.944,0.26,-0.009,6.104,0.061,2.014
0.997,0.249,-0.022,5.371,-0.793,0.61
0.987,0.257,0.017,4.517,-1.526,0.122
0.982,0.275,-0.002,3.784,1.404,0.427
0.968,0.256,-0.021,3.174,3.967,-2.075
0.955,0.241,-0.034,2.502,2.991,-2.991
0.95,0.239,-0.017,2.502,-0.183,-2.441
0.958,0.237,0,3.113,-2.197,-1.892
0.963,0.249,-0.004,3.662,-2.563,-1.77
0.958,0.253,-0.019,3.601,-2.014,-1.953
0.958,0.246,-0.026,3.479,-2.075,-2.625
0.96,0.244,-0.005,2.808,-3.479,-2.869
0.959,0.243,0.014,2.441,-3.601,-2.869
0.954,0.229,0.002,2.991,-1.709,-3.723
0.961,0.221,-0.02,2.93,-0.61,-3.967
0.961,0.222,-0.007,2.319,-1.953,-3.662
0.961,0.217,0.005,1.831,-2.991,-3.723
0.956,0.217,0.005,1.16,-2.563,-4.089
0.958,0.206,-0.001,0.916,-2.38,-4.639
0.958,0.203,0.001,0.427,-2.93,-4.15
0.961,0.207,0.006,-0.183,-3.174,-3.174
0.965,0.214,0.011,-0.366,-2.808,-2.563
0.958,0.21,0.006,-0.244,-1.709,-2.808
0.953,0.194,0.006,0.244,-1.221,-3.54
0.955,0.188,0.008,0.671,-1.831,-3.662
0.955,0.193,0.01,0.793,-2.319,-2.869
0.961,0.203,0.01,0.793,-2.563,-2.197
0.966,0.215,0.008,0.244,-2.014,-1.77
0.965,0.229,-0.004,-0.549,-0.61,-1.648
0.967,0.227,-0.008,-0.427,0.061,-1.709
0.975,0.232,0.005,-0.366,-0.366,-1.709
0.976,0.24,0.021,-1.038,0.977,-1.526
0.98,0.231,0.018,-0.977,4.395,-1.709
1.038,0.244,-0.022,-1.099,6.409,-2.38
1.018,0.239,-0.011,-0.366,1.648,-4.028
1.001,0.231,0.021,-0.732,-2.502,-5.92
0.984,0.225,0.03,-1.099,-1.831,-6.897
0.968,0.209,0.002,-0.244,0.977,-8.179
0.954,0.191,-0.007,-0.061,1.587,-8.728
0.946,0.195,-0.002,-1.038,0.305,-7.507
0.939,0.207,-0.004,-1.709,0.244,-6.348
0.935,0.203,-0.014,-1.343,0.61,-6.592
0.93,0.197,-0.014,-1.404,0.61,-6.897
0.938,0.192,-0.007,-0.916,-0.061,-6.714
0.943,0.197,-0.003,-1.282,-0.366,-6.348
0.937,0.18,0.002,-1.77,-0.244,-6.958
0.938,0.172,0.007,-3.052,-0.427,-7.751
0.946,0.179,0.016,-6.287,-0.122,-6.958
0.952,0.175,0.019,-9.46,1.526,-6.226
0.953,0.16,0.004,-9.766,3.479,-5.493
0.958,0.16,0,-7.69,2.93,-4.089
0.964,0.172,0.008,-7.812,1.038,-2.441
0.971,0.186,0.009,-9.521,1.16,-1.892
0.972,0.192,0.005,-11.78,2.869,-2.136
0.967,0.183,-0.007,-11.78,4.639,-2.502
0.962,0.177,-0.02,-9.033,5.066,-2.441
0.958,0.179,-0.01,-7.69,3.357,-1.892
0.963,0.185,-0.003,-7.629,1.709,-1.526
0.971,0.192,0.015,-8.118,1.526,-1.343
0.971,0.21,-0.003,-8.911,2.869,-1.77
0.97,0.219,-0.017,-11.719,4.761,-3.113
,,,,,
1.996,0.636,0.1,0.122,-41.26,62.805
2.113,0.713,0.059,-2.869,-32.715,62.317
2.207,0.768,0.042,-6.47,-25.635,54.199
2.259,0.788,0.062,-12.268,-20.935,39.551
2.198,0.745,0.078,-18.25,-17.395,17.944
2.008,0.664,0.114,-23.315,-16.296,-7.996
1.63,0.426,0.17,-24.597,-16.541,-36.499
1.424,0.239,0.238,-30.884,-13.306,-54.382
1.172,0.072,0.302,-36.438,-8.972,-62.988
0.98,-0.062,0.33,-34.729,-1.709,-67.322
0.833,-0.196,0.31,-28.381,5.005,-64.697
0.755,-0.211,0.289,-23.132,11.658,-52.673
0.694,-0.207,0.263,-19.409,15.93,-39.429
0.649,-0.187,0.189,-15.137,20.508,-29.175
0.625,-0.17,0.12,-11.414,21.729,-20.325
0.608,-0.132,0.052,-9.338,20.935,-13
0.778,-0.08,-0.038,-8.362,16.296,-5.615
0.694,-0.017,0.03,-4.7,2.441,-1.77
0.786,0.006,0.079,-1.404,-2.747,1.953
0.857,0.073,0.08,-0.305,4.15,7.812
0.928,0.115,0.025,2.93,11.475,11.353
0.991,0.153,-0.018,4.333,12.329,13.489
1.022,0.202,-0.008,4.456,7.385,15.991
1.093,0.251,0.045,3.662,3.418,18.433
1.154,0.283,0.06,4.089,4.333,17.761
1.182,0.302,0.027,5.066,6.531,13.794
1.122,0.317,0.015,4.944,5.31,8.85
1.053,0.299,0.029,3.052,6.348,5.31
1.122,0.345,-0.042,-0.854,13.611,4.883
1.103,0.352,-0.032,-2.808,10.681,1.465
1.084,0.33,-0.005,-4.7,4.089,-4.822
1.029,0.287,0.023,-4.761,0.061,-10.559
0.988,0.252,0.028,-5.615,1.038,-13.672
0.953,0.224,0.02,-6.836,3.296,-14.648
0.928,0.202,0.02,-8.728,4.822,-13.916
0.903,0.184,0.042,-10.62,5.127,-12.817
0.878,0.17,0.055,-12.817,5.798,-13.062
0.874,0.136,0.038,-13.306,7.935,-14.526
0.882,0.104,0.033,-10.071,9.827,-13.367
0.911,0.104,0.034,-9.338,9.644,-9.46
0.94,0.111,0.032,-7.874,8.911,-6.653
0.957,0.119,0.018,-6.042,7.019,-6.47
0.962,0.118,0.016,-4.944,4.211,-7.385
0.963,0.109,0.02,-4.883,2.319,-7.812
0.939,0.097,0.028,-5.005,2.319,-7.629
0.932,0.09,0.035,-5.493,3.052,-6.531
0.931,0.087,0.038,-5.554,3.906,-4.7
0.927,0.097,0.039,-5.066,4.211,-2.686
0.947,0.111,0.024,-4.089,4.517,-1.282
0.954,0.128,0.012,-2.075,3.174,-0.732
0.96,0.146,0.009,0.061,0.244,-0.61
0.953,0.157,0.019,1.831,-1.953,-0.732
0.988,0.168,0.024,2.686,-2.075,-0.427
0.913,0.162,-0.003,3.174,-1.526,-0.916
0.947,0.177,0.013,2.38,-1.221,-0.366
0.966,0.173,0,1.16,0.366,2.075
0.981,0.225,0.016,0.305,0.671,5.432
1.006,0.247,-0.011,-0.916,2.747,4.395
1.023,0.234,-0.024,-1.038,1.282,-0.183
1.01,0.234,-0.004,-1.465,-2.625,-2.93
0.986,0.192,0.01,-1.831,-4.15,-5.737
0.977,0.173,-0.005,-2.686,-2.625,-6.042
0.985,0.171,-0.005,-3.235,-2.258,-4.639
0.987,0.163,0.015,-3.906,-3.113,-3.235
0.982,0.155,0.03,-4.395,-2.502,-2.197
0.975,0.155,0.032,-4.272,-0.916,-1.648
0.978,0.159,0.031,-3.357,0.671,-1.465
1.039,0.16,-0.005,-2.563,1.892,-1.709
0.997,0.144,0.019,-2.563,-2.319,-3.235
0.984,0.133,0.049,-2.869,-6.287,-4.456
0.966,0.124,0.061,-2.625,-5.859,-4.761
0.958,0.122,0.044,-1.953,-3.174,-4.639
0.948,0.114,0.023,-1.221,-1.038,-4.333
0.937,0.109,0.019,-0.977,-1.16,-3.296
0.935,0.12,0.03,-0.732,-1.953,-1.648
0.957,0.135,0.051,-0.732,-2.014,0.305
0.967,0.153,0.042,-1.343,-0.183,0.671
0.963,0.149,0.021,-1.587,1.648,-0.61
0.962,0.151,0.004,-1.831,1.587,-1.282
0.975,0.163,0.001,-2.563,0.244,-0.916
0.985,0.174,0.015,-3.784,-0.977,-0.61
0.987,0.176,0.018,-4.333,-0.427,-0.732
0.982,0.174,0.006,-4.578,1.404,-1.343
0.978,0.166,0.002,-4.517,2.502,-1.526
0.98,0.163,0.014,-4.7,2.258,-1.038
0.988,0.162,0.017,-4.028,2.625,-0.305
1.01,0.17,-0.003,-3.784,2.502,-0.366
0.996,0.168,0.003,-3.967,-0.183,-1.465
0.985,0.165,0.028,-5.005,-1.648,-1.953
0.979,0.156,0.042,-5.615,-0.916,-2.319
0.972,0.145,0.028,-5.432,1.282,-3.296
0.959,0.133,0.013,-5.31,2.075,-4.211
0.959,0.14,0.006,-5.737,1.526,-4.028
0.975,0.155,0.006,-6.409,1.282,-3.174
0.976,0.157,0.008,-6.409,1.465,-3.54
0.967,0.146,0.005,-6.409,0.977,-4.7
0.958,0.131,0.004,-6.409,0.061,-5.127
0.95,0.125,0.013,-6.348,-0.549,-4.089
0.946,0.116,0.023,-5.676,-0.122,-2.686
0.963,0.11,0.024,-5.005,0.916,-1.648
0.968,0.113,0.02,-4.456,1.099,-0.916
0.972,0.124,0.02,-4.211,0.244,-0.122
0.977,0.127,0.029,-3.967,0,0.305
0.978,0.127,0.027,-3.357,0.793,0.305
0.975,0.134,0.014,-2.625,1.953,0.366
0.979,0.147,0.011,-2.258,2.197,0.793
0.977,0.147,0.015,-1.77,2.808,0.366
0.973,0.137,0.01,-1.526,3.418,-0.183
0.972,0.133,0.001,-1.465,3.357,-0.183
0.972,0.143,0.002,-1.77,2.258,0.488
0.977,0.148,0.015,-2.075,1.16,0.977
0.978,0.148,0.013,-1.465,1.587,0.671
0.973,0.141,-0.001,-1.038,2.747,0.061
0.974,0.143,-0.008,-1.099,2.075,0.244
0.975,0.155,0.006,-1.404,0.427,0.854
0.977,0.144,0.031,-1.77,-0.671,0.549
0.979,0.139,0.036,-1.831,0.732,-0.183
0.972,0.136,0.016,-1.77,3.174,-0.305
0.966,0.133,-0.003,-1.648,3.967,-0.488
,,,,,
1.967,0.588,-0.192,8.911,-22.766,38.879
1.996,0.549,-0.245,12.024,-17.029,26.367
2.009,0.549,-0.253,10.01,-16.113,19.531
1.984,0.533,-0.197,4.517,-19.897,11.963
1.896,0.52,-0.15,-0.183,-22.278,3.54
1.768,0.469,-0.109,-3.906,-23.56,-8.179
1.625,0.422,-0.041,-8.057,-25.452,-21.179
1.318,0.294,0.09,-10.681,-27.405,-35.278
1.202,0.163,0.12,-12.329,-22.461,-45.288
1.011,0.051,0.171,-11.902,-20.752,-49.561
0.872,-0.025,0.216,-9.827,-20.264,-49.988
0.749,-0.105,0.246,-7.568,-18.005,-47.363
0.698,-0.162,0.248,-5.92,-11.902,-41.016
0.688,-0.157,0.221,-5.92,-4.517,-30.701
0.839,-0.086,0.119,-5.31,-0.732,-22.095
0.749,-0.096,0.129,-1.526,-6.042,-20.447
0.802,-0.118,0.106,0.366,-4.7,-17.883
0.876,-0.104,0.091,-0.183,-0.977,-9.888
0.964,-0.074,0.065,0.549,2.625,-3.418
1.032,-0.042,0.026,2.625,4.7,0.977
1.078,0.003,-0.003,5.371,3.54,4.517
1.101,0.07,-0.009,6.042,1.526,7.263
1.106,0.106,-0.025,6.897,1.404,7.507
1.105,0.135,-0.02,7.141,1.648,6.165
1.068,0.162,0.021,6.409,1.099,5.127
1.016,0.143,0.043,5.981,4.395,4.517
1.067,0.188,-0.03,4.883,11.536,5.432
1.005,0.205,-0.046,5.249,7.69,4.15
0.986,0.205,-0.03,4.211,0.793,0.916
0.978,0.21,0.02,2.319,-2.502,-0.183
0.972,0.206,0.043,0.671,-1.221,-1.038
0.967,0.171,0.019,0.916,2.991,-2.991
0.964,0.145,0.004,1.282,4.395,-3.784
0.971,0.146,0.006,0.916,2.869,-1.953
1,0.151,0.019,-0.122,2.014,0.122
1.022,0.156,0.019,-1.16,2.38,0.61
1.011,0.159,0.019,-1.77,3.601,-0.854
0.977,0.131,-0.006,0.061,4.395,-3.601
0.943,0.112,-0.032,0.793,5.249,-5.127
0.921,0.104,-0.04,0.854,4.944,-3.906
0.916,0.103,-0.04,0.305,4.395,-1.953
0.922,0.108,-0.02,-0.122,3.052,-0.122
0.916,0.11,-0.002,0.427,2.502,1.038
0.991,0.132,-0.018,1.526,3.601,1.404
0.979,0.11,-0.033,1.648,2.686,-0.122
0.982,0.116,0.006,1.221,0.244,-1.526
0.979,0.085,0.031,0.488,1.221,-0.977
0.995,0.122,0.02,-0.977,4.517,2.258
1.022,0.109,-0.023,-0.488,5.859,1.221
1.025,0.123,-0.007,-0.122,1.526,0.488
1,0.137,0.029,-0.122,-2.747,-0.305
0.986,0.135,0.029,1.343,-2.258,-1.892
0.953,0.116,-0.003,1.892,-0.122,-3.723
0.931,0.107,-0.019,2.502,-0.671,-4.028
0.922,0.116,-0.01,2.563,-3.113,-2.563
0.925,0.132,0.011,2.014,-4.15,-0.488
0.966,0.153,-0.003,1.526,-2.808,0.488
0.974,0.156,-0.017,2.319,-2.991,-0.854
0.978,0.148,-0.02,3.296,-4.883,-2.502
0.984,0.147,-0.016,3.052,-6.714,-3.113
0.966,0.135,0.025,2.197,-7.202,-2.808
1.016,0.14,0.021,0.61,-3.723,-1.526
1.005,0.141,0.025,-0.183,-1.465,-1.282
0.983,0.113,0.014,0.488,-0.061,-2.563
0.975,0.115,0.005,0.549,1.038,-2.136
0.979,0.125,0.011,0.244,0.244,-1.038
0.974,0.118,0.012,0.183,0.366,-1.16
0.969,0.102,0.006,0.122,0.488,-1.709
0.966,0.096,0.001,-0.183,-0.427,-1.77
0.964,0.099,0.002,-0.122,-2.441,-1.587
0.974,0.108,0.022,0.732,-4.333,-1.587
0.983,0.109,0.043,1.099,-4.395,-1.953
0.98,0.092,0.04,1.343,-2.563,-2.747
0.97,0.084,0.021,1.526,-0.793,-2.502
0.938,0.08,0.017,1.77,-0.305,-1.16
0.948,0.096,-0.004,1.587,0.366,1.465
0.968,0.108,-0.004,1.343,-0.183,3.601
0.987,0.141,0.025,0.061,-1.343,4.272
0.994,0.132,0.024,0.793,0,2.869
0.99,0.117,0.006,1.038,1.587,0.977
0.99,0.12,0.001,0.977,0.61,0.854
0.999,0.143,0.005,0.854,-1.099,1.709
1.008,0.165,0.011,0.366,-1.282,1.587
1,0.157,0.009,0.061,-0.122,-0.183
0.989,0.132,0.003,-0.549,1.16,-1.465
0.983,0.131,0.002,-1.587,1.953,-0.793
0.978,0.129,0.004,-2.136,2.258,-0.244
0.973,0.118,0.011,-2.075,1.404,-0.549
0.975,0.121,0.008,-1.953,0.732,-0.916
0.977,0.117,0.007,-1.587,-0.061,-1.099
0.978,0.114,0.011,-1.709,-0.61,-1.038
0.979,0.117,0.008,-1.953,-0.427,-0.488
0.979,0.118,0.002,-1.953,-0.183,-0.549
0.98,0.116,0.002,-1.831,-0.793,-0.793
0.984,0.12,0.01,-2.075,-1.038,-1.038
0.982,0.114,0.019,-2.625,-0.854,-1.282
0.995,0.103,0.014,-3.052,-0.122,-1.648
1.001,0.115,0.009,-2.747,-1.099,-1.953
0.982,0.105,0.029,-1.831,-3.357,-2.563
0.97,0.098,0.027,-1.587,-2.808,-2.808
0.974,0.102,0.017,-1.465,-1.343,-2.014
0.983,0.111,0.011,-1.648,-0.916,-1.404
0.981,0.115,0.016,-1.465,-1.526,-1.404
0.973,0.115,0.012,-1.343,-1.709,-1.709
0.961,0.116,0.009,-1.282,-1.343,-1.892
0.952,0.107,0.007,-0.854,-0.916,-1.648
0.97,0.1,0.009,-0.488,-0.732,-1.282
0.978,0.107,0.019,-0.183,-1.099,-0.671
0.979,0.1,0.023,-0.122,-0.977,-0.305
0.979,0.096,0.022,-0.061,-0.366,-0.549
0.98,0.102,0.018,-0.305,0.305,0.122
0.978,0.101,0.013,-0.305,0.61,0.549
0.976,0.097,0.008,-0.061,0.732,0.671
0.98,0.104,0.009,0.305,0.061,1.16
0.98,0.109,0.015,0.427,-0.305,1.587
0.978,0.108,0.013,0.61,0.061,1.282
0.983,0.107,0.004,0.854,-0.122,1.038
0.989,0.116,0.013,0.977,-1.465,1.282
0.989,0.122,0.026,0.977,-2.197,1.16
,,,,,
2.413,0.481,0.327,17.517,-32.288,52.307
2.549,0.543,0.341,10.803,-13.977,52.673
2.611,0.641,0.237,5.676,4.517,44.678
2.513,0.633,0.124,1.648,14.099,23.804
2.285,0.552,0.102,-5.737,13.245,1.038
1.994,0.404,0.164,-14.526,11.536,-17.639
1.659,0.326,0.212,-21.423,14.465,-33.02
1.3,0.148,0.248,-19.958,14.282,-50.354
0.948,0.014,0.272,-18.127,15.442,-60.364
0.639,-0.062,0.239,-12.39,20.63,-62.378
0.447,-0.151,0.175,-6.775,28.32,-58.472
0.3,-0.167,0.123,-4.639,33.447,-51.331
0.221,-0.21,0.063,-1.648,33.386,-42.358
0.275,-0.223,0.021,1.404,28.564,-28.992
0.361,-0.159,0.033,3.418,17.822,-13.855
0.466,-0.138,0.046,5.066,7.446,-1.16
0.594,-0.063,0.079,4.639,3.906,10.864
0.745,-0.043,0.07,7.446,6.348,15.259
0.885,-0.005,0.031,8.301,8.972,20.569
1.007,0.077,0.024,7.446,8.24,27.954
1.16,0.164,0.025,7.751,6.775,33.081
1.282,0.243,0.04,6.409,6.165,34.241
1.369,0.278,0.041,5.615,6.348,31.372
1.41,0.289,0.036,4.028,6.836,26.062
1.413,0.329,0.054,2.319,5.798,19.714
1.333,0.303,0.038,3.662,4.822,10.315
1.234,0.236,0.039,3.54,8.179,2.747
1.189,0.273,-0.019,-0.671,14.832,1.282
1.106,0.231,0.012,-2.197,7.996,-2.686
1.051,0.206,0.056,-4.578,1.221,-7.629
0.969,0.195,0.098,-4.883,-0.732,-11.169
0.896,0.152,0.094,-5.371,4.456,-14.587
0.831,0.131,0.059,-5.798,10.986,-16.235
0.798,0.088,0.025,-5.249,13.977,-15.991
0.811,0.074,0.016,-4.7,13.428,-12.512
0.84,0.082,0.017,-4.272,11.414,-7.446
0.911,0.085,0.002,-2.625,9.583,-4.822
0.953,0.103,-0.002,-1.282,5.493,-4.272
0.974,0.111,0.014,0.061,-0.366,-4.517
0.939,0.097,0.039,0.61,-1.77,-4.883
0.943,0.063,0.027,0,2.197,-3.845
0.957,0.079,-0.003,-0.854,6.287,-0.061
0.983,0.101,0,-0.793,4.517,3.723
1.01,0.131,0.042,-2.258,1.77,5.005
1.018,0.138,0.05,-2.991,1.892,3.784
1.006,0.136,0.036,-4.272,4.333,1.16
0.98,0.118,0.016,-4.517,5.31,-0.916
0.973,0.117,0.005,-3.54,3.784,-0.793
0.969,0.131,0.016,-3.357,1.16,0.732
0.972,0.146,0.035,-4.089,-0.854,0.793
0.965,0.135,0.044,-3.235,-1.221,-0.916
0.918,0.114,0.057,-3.601,0.427,-2.319
0.932,0.099,0.024,-4.395,4.578,-1.465
0.951,0.121,-0.002,-3.601,6.287,1.526
0.993,0.131,-0.001,-2.502,4.639,3.845
0.986,0.189,-0.005,-2.991,2.747,3.967
1.006,0.171,0.005,-2.869,-0.305,0.122
0.997,0.147,-0.001,-4.15,-0.854,-2.197
0.986,0.161,0.018,-4.272,-1.282,-1.282
0.991,0.164,-0.008,-5.676,1.16,-0.549
0.995,0.142,-0.013,-6.042,1.038,-1.526
1.002,0.142,-0.003,-6.958,-1.221,-0.732
1.001,0.153,0.03,-7.568,-3.601,0.427
0.991,0.151,0.048,-7.324,-3.906,-0.549
0.98,0.128,0.032,-6.409,-1.77,-2.319
0.968,0.12,0.014,-6.042,-0.732,-2.625
0.966,0.118,0.017,-5.798,-2.686,-2.197
0.969,0.126,0.03,-5.371,-5.31,-2.075
0.978,0.141,0.029,-4.944,-6.531,-2.502
0.975,0.132,0.025,-4.883,-6.47,-3.784
0.967,0.109,0.029,-5.066,-6.775,-5.066
0.969,0.094,0.042,-4.761,-7.751,-5.249
0.97,0.086,0.052,-4.272,-8.118,-4.211
0.959,0.079,0.064,-3.54,-7.324,-2.869
0.957,0.072,0.068,-2.686,-4.883,-0.916
0.972,0.098,0.054,-1.526,-1.831,1.77
0.995,0.112,0.048,0.061,-0.732,2.625
1.007,0.121,0.043,0.732,-0.549,1.526
0.986,0.121,0.045,0.793,-0.244,0.427
0.974,0.117,0.032,0.305,1.587,0.305
0.972,0.13,0.027,-0.427,2.197,1.038
0.975,0.139,0.025,-0.977,1.343,1.343
0.981,0.143,0.022,-1.221,0.61,0.916
0.982,0.149,0.022,-1.404,0.61,0.488
0.981,0.149,0.02,-2.625,0.854,0.183
0.976,0.14,0.027,-3.296,1.099,-0.488
0.975,0.134,0.026,-3.296,0.977,-1.099
0.972,0.134,0.013,-2.93,0.732,-1.282
0.974,0.138,0.002,-2.808,-0.183,-1.587
0.971,0.14,0.01,-3.113,-1.892,-1.77
0.94,0.121,0.04,-3.418,-3.113,-2.38
0.95,0.103,0.037,-4.211,-1.526,-1.953
0.956,0.106,0.023,-4.944,0.183,-0.671
0.97,0.107,0.023,-5.188,-0.366,0.427
0.972,0.108,0.049,-5.432,-2.014,0.854
0.978,0.101,0.061,-4.578,-1.831,0.854
0.988,0.098,0.051,-3.784,-0.488,0.854
1.002,0.105,0.051,-3.418,0.427,1.282
1.012,0.113,0.053,-2.93,0.366,1.526
0.99,0.107,0.06,-1.709,0.427,0.732
0.982,0.096,0.044,-1.282,2.136,0.305
0.98,0.111,0.034,-1.648,3.906,1.709
0.978,0.123,0.025,-1.648,4.517,2.93
0.971,0.13,0.017,-1.77,4.7,3.113
0.97,0.136,0.008,-1.953,3.906,2.686
0.972,0.143,0.002,-1.77,1.953,2.075
0.971,0.143,0.004,-1.77,-0.244,1.038
0.974,0.136,0.011,-1.77,-1.77,0
0.978,0.13,0.021,-1.953,-3.296,-0.427
0.984,0.132,0.034,-2.075,-3.845,-0.305
0.986,0.131,0.045,-2.197,-2.991,-0.122
0.991,0.122,0.043,-2.136,-1.099,0.183
0.988,0.12,0.041,-2.136,0.793,1.221
0.982,0.125,0.034,-2.869,2.625,2.38
0.974,0.134,0.025,-3.296,4.089,2.991
0.967,0.132,0.005,-3.113,4.15,2.197
0.967,0.133,-0.003,-3.357,2.197,1.221
0.969,0.13,0.01,-3.601,-0.854,0.671
0.977,0.129,0.03,-3.784,-2.686,0.488
,,,,,
2.308,0.453,0.602,22.4,-45.41,143.494
2.633,0.808,0.501,22.705,-32.471,158.325
2.785,1.075,0.361,19.226,-15.625,153.076
2.791,1.191,0.175,19.531,-1.587,128.662
2.758,1.258,-0.049,18.188,2.38,90.881
2.607,1.254,-0.099,17.395,-4.333,54.016
2.344,1.118,-0.002,14.465,-13,16.968
1.906,0.797,0.094,7.568,-9.338,-18.433
1.58,0.646,0.106,-4.272,4.15,-41.809
1.198,0.362,0.157,-9.521,6.165,-64.087
0.89,0.141,0.214,-11.963,7.202,-77.271
0.657,-0.03,0.253,-10.315,8.972,-78.613
0.469,-0.144,0.248,-6.104,13.062,-72.754
0.353,-0.227,0.22,-5.798,16.541,-61.523
0.275,-0.265,0.189,-6.653,16.235,-46.997
0.29,-0.277,0.145,-8.606,12.085,-30.64
0.367,-0.232,0.112,-11.719,3.784,-12.817
0.503,-0.138,0.164,-14.465,-5.493,1.709
0.682,-0.05,0.177,-14.221,-8.118,10.986
0.828,-0.013,0.169,-9.827,-4.089,15.686
0.964,0.028,0.153,-5.554,0.183,19.592
1.121,0.115,0.099,-1.343,4.211,25.94
1.251,0.247,0.065,0.305,6.287,32.166
1.344,0.361,0.036,-1.099,5.981,32.776
1.38,0.428,0.035,-1.77,4.395,26.978
1.379,0.48,0.035,-2.747,4.028,18.433
1.159,0.427,0.094,-3.906,6.348,8.301
1.227,0.405,-0.041,-7.69,16.602,2.136
1.12,0.404,0.011,-10.803,8.789,-1.526
1.048,0.379,0.052,-12.512,0.732,-7.263
0.961,0.342,0.078,-11.658,-1.038,-13.428
0.887,0.31,0.081,-11.108,1.526,-17.944
0.851,0.276,0.056,-11.719,6.165,-20.63
0.816,0.229,0.058,-12.451,7.324,-22.644
0.812,0.197,0.078,-15.259,6.653,-22.095
0.809,0.176,0.093,-17.334,7.874,-19.714
0.822,0.174,0.1,-18.555,10.315,-16.846
0.904,0.201,0.039,-16.907,13.245,-14.099
0.935,0.241,0.009,-12.512,10.62,-13.672
0.952,0.229,0.022,-7.935,3.967,-16.541
0.91,0.211,0.051,-8.24,1.282,-20.569
0.904,0.17,0.051,-11.475,5.798,-22.339
0.929,0.149,0.02,-12.024,12.756,-19.897
0.963,0.167,0.004,-9.766,13.733,-15.076
0.989,0.184,0.009,-6.653,11.963,-10.559
1.008,0.193,0.022,-4.7,9.521,-9.705
1.025,0.192,0.031,-1.953,7.69,-9.583
0.999,0.194,0.042,0.61,6.287,-10.193
0.974,0.181,0.046,1.831,6.104,-10.681
0.95,0.158,0.036,3.113,7.996,-10.803
0.942,0.142,0.025,4.639,7.935,-10.132
0.935,0.13,0.04,6.47,4.089,-8.301
0.944,0.131,0.045,9.46,-0.366,-6.287
0.954,0.161,0.048,10.803,-2.93,-4.639
0.959,0.209,0.042,12.634,-3.967,-4.211
0.96,0.211,0.036,16.418,-4.211,-5.676
0.959,0.188,0.029,19.836,-4.639,-8.301
0.917,0.157,0.047,20.569,-4.761,-8.972
0.928,0.142,0.046,16.479,-1.892,-6.714
0.964,0.153,0.035,10.803,1.648,-2.136
0.989,0.181,0.035,7.874,1.16,0.244
1.003,0.191,0.039,6.897,-1.404,-0.366
1.011,0.209,0.051,5.676,-2.747,-1.221
1.002,0.215,0.057,4.333,-2.808,-2.625
0.976,0.198,0.047,3.723,-1.404,-3.723
0.976,0.172,0.045,1.648,0.488,-3.296
0.94,0.183,0.042,-0.366,0.732,-2.197
0.963,0.177,0.04,-1.038,-1.099,-2.38
0.97,0.179,0.078,-1.831,-2.014,-2.014
0.977,0.152,0.064,-1.953,0.916,-2.014
0.972,0.199,0.038,-2.197,4.272,1.16
0.978,0.208,0.034,-1.343,4.15,0.183
0.964,0.178,0.023,0.549,3.235,-2.869
0.958,0.178,0.033,0.305,1.648,-3.723
0.961,0.152,0.037,0.305,-0.244,-4.761
0.96,0.136,0.043,0.671,-2.014,-5.188
0.963,0.137,0.051,0.061,-3.296,-4.028
0.966,0.134,0.052,-0.793,-3.784,-2.869
0.976,0.153,0.062,-1.465,-4.15,-1.343
0.986,0.176,0.081,-1.404,-3.418,0.244
0.98,0.164,0.081,0,0.061,0
0.975,0.158,0.069,0,4.211,-0.244
0.971,0.166,0.051,-0.671,6.592,-0.183
1.032,0.173,0.01,-0.244,6.836,-0.366
0.999,0.181,0.037,0.854,1.526,-1.77
0.978,0.175,0.06,-0.244,-1.892,-4.211
0.933,0.15,0.048,-0.977,0.183,-5.92
0.921,0.136,0.03,-2.197,2.93,-4.883
0.927,0.152,0.024,-3.54,3.906,-1.831
0.959,0.193,0.009,-4.089,2.93,0.061
0.975,0.212,0.018,-3.967,1.221,-0.366
0.981,0.212,0.022,-5.249,0.549,-2.563
0.981,0.214,0.015,-7.385,1.16,-4.333
0.983,0.181,0.027,-8.85,1.404,-5.92
0.975,0.147,0.056,-11.902,1.953,-6.775
0.972,0.14,0.058,-14.526,3.784,-6.287
0.962,0.129,0.051,-12.329,5.127,-4.883
0.963,0.129,0.042,-10.254,5.005,-3.113
0.965,0.13,0.04,-8.545,4.089,-1.77
0.962,0.134,0.037,-7.629,3.357,-0.793
0.963,0.132,0.033,-7.874,2.38,-0.427
0.966,0.13,0.039,-7.263,1.16,-0.427
0.969,0.134,0.039,-6.653,0,0.488
0.974,0.14,0.047,-6.287,-0.183,1.343
0.972,0.145,0.047,-5.737,0.916,1.77
0.97,0.153,0.03,-4.944,2.747,2.136
0.969,0.156,0.02,-4.333,3.357,2.136
0.967,0.167,0.013,-4.272,3.052,2.197
0.97,0.177,0.015,-3.296,2.014,2.258
0.974,0.178,0.026,-2.38,1.282,1.953
0.975,0.182,0.024,-1.526,1.648,1.648
0.97,0.177,0.022,-0.793,2.258,0.916
0.969,0.172,0.021,-0.305,2.197,0.488
0.971,0.171,0.023,-0.122,1.709,-0.061
0.972,0.172,0.019,-0.183,0.977,-0.366
0.973,0.176,0.016,-0.61,0.488,-0.61
0.971,0.178,0.029,-1.343,0.183,-0.977
0.975,0.176,0.038,-1.038,0.183,-1.709
0.972,0.156,0.036,0.61,1.221,-2.502
,,,,,
1.958,0.596,-0.344,19.348,9.155,57.251
1.992,0.637,-0.351,10.742,1.16,50.964
1.981,0.668,-0.313,0.671,-8.911,40.344
1.901,0.665,-0.224,-9.155,-17.944,26.489
1.765,0.618,-0.128,-16.541,-23.621,9.399
1.587,0.564,-0.055,-22.583,-23.132,-6.714
1.351,0.454,-0.001,-27.039,-15.991,-21.851
1.221,0.401,-0.055,-31.25,-6.775,-32.898
1.082,0.329,-0.005,-33.508,-12.146,-42.053
0.98,0.244,0.057,-34.851,-18.616,-51.147
0.845,0.131,0.152,-35.522,-22.4,-58.35
0.722,-0.003,0.222,-35.4,-19.958,-61.523
0.64,-0.073,0.218,-33.936,-10.498,-58.777
0.574,-0.167,0.184,-25.696,-3.235,-52.612
0.652,-0.208,0.119,-16.296,1.892,-40.1
0.671,-0.164,0.13,-9.033,2.625,-23.071
0.785,-0.103,0.079,-1.587,5.737,-10.01
0.922,-0.028,0.013,4.456,9.033,-2.075
1.048,0.046,-0.051,6.653,9.521,2.197
1.115,0.105,-0.092,5.615,6.47,3.601
1.145,0.137,-0.078,3.967,0.854,1.709
1.159,0.165,-0.061,2.808,-0.61,-1.099
1.167,0.167,-0.053,2.258,1.709,-3.54
1.043,0.148,-0.008,2.319,4.517,-5.493
1.119,0.108,-0.067,1.953,10.986,-4.578
1.093,0.152,-0.077,0.916,10.681,-0.671
1.082,0.19,-0.048,-0.427,5.188,0.671
1.043,0.194,-0.037,-1.221,3.357,-2.014
0.989,0.19,-0.036,-1.831,3.418,-5.493
0.948,0.184,-0.051,-1.587,4.639,-8.24
0.918,0.176,-0.05,-1.831,4.517,-9.949
0.895,0.166,-0.04,-2.38,3.906,-10.376
0.875,0.135,-0.025,-2.197,3.479,-10.681
0.865,0.115,-0.023,-1.953,3.723,-9.644
0.881,0.117,-0.021,-1.465,3.967,-6.653
0.929,0.135,-0.033,-1.343,5.371,-3.723
0.965,0.14,-0.046,-0.977,5.859,-2.869
0.975,0.131,-0.056,-0.671,4.883,-3.113
0.989,0.138,-0.06,-1.343,3.54,-2.625
1.012,0.152,-0.063,-2.38,3.174,-0.854
1.015,0.15,-0.083,-2.686,3.174,0
1.002,0.134,-0.101,-3.601,1.282,0.061
0.991,0.129,-0.098,-4.761,-2.38,0.732
0.982,0.131,-0.075,-5.92,-6.226,1.343
0.985,0.136,-0.06,-7.202,-7.996,1.709
0.994,0.173,-0.016,-7.629,-8.24,1.343
0.99,0.139,-0.012,-5.066,-5.432,-2.441
0.961,0.098,-0.006,-2.808,-3.235,-5.92
0.951,0.091,-0.013,-1.526,-1.77,-5.92
0.911,0.074,-0.023,-0.488,-1.465,-4.7
0.936,0.117,0.006,-0.671,-2.136,-1.099
0.969,0.129,-0.037,-0.427,-0.122,0.977
0.95,0.15,-0.042,-0.549,-1.038,1.831
1.042,0.158,-0.053,-0.122,-2.319,1.77
0.955,0.16,-0.063,0.244,-3.479,-0.061
0.974,0.154,-0.074,-0.366,-6.47,-2.319
0.982,0.131,-0.055,-2.38,-10.01,-2.075
0.934,0.143,-0.027,-5.31,-11.536,2.808
0.972,0.2,0.005,-5.554,-9.399,6.226
0.991,0.184,-0.049,-3.601,-3.784,2.563
0.986,0.182,-0.06,-1.77,-3.235,-0.549
0.971,0.174,-0.055,-1.831,-2.869,-1.709
0.981,0.18,-0.047,-1.77,-2.014,-2.075
0.982,0.163,-0.054,-1.587,-1.038,-3.479
0.987,0.147,-0.053,-1.831,-1.953,-4.333
0.986,0.156,-0.048,-3.174,-4.028,-4.089
0.975,0.148,-0.024,-3.784,-6.104,-4.883
0.95,0.13,-0.018,-3.113,-6.409,-6.653
0.937,0.105,-0.018,-1.953,-5.31,-6.897
0.961,0.101,-0.026,-1.343,-5.127,-5.615
0.968,0.106,-0.012,-0.916,-6.592,-4.028
0.977,0.108,-0.002,-1.038,-7.263,-2.93
0.933,0.098,0.016,-1.099,-5.676,-2.319
0.958,0.088,-0.005,-0.977,-2.136,-1.099
0.966,0.096,-0.012,-0.732,-0.61,0.671
0.974,0.097,-0.018,-0.366,-0.671,1.221
0.984,0.109,-0.02,-0.061,-1.16,1.953
0.995,0.128,-0.014,-0.305,-1.343,2.625
0.997,0.13,-0.013,-0.488,-1.16,2.136
0.989,0.124,-0.015,-0.488,-0.854,1.099
0.982,0.121,-0.018,-0.732,-0.427,0.854
0.984,0.135,-0.025,-1.343,-0.061,1.648
0.998,0.147,-0.027,-1.282,-0.366,2.258
0.998,0.15,-0.022,-1.587,-0.916,1.709
0.987,0.147,-0.014,-2.747,-0.732,1.099
0.977,0.137,-0.019,-3.479,0.854,1.038
0.974,0.135,-0.023,-3.052,0.977,1.038
0.974,0.147,-0.034,-2.38,0.122,1.343
0.977,0.151,-0.036,-2.136,-0.732,0.977
0.977,0.149,-0.027,-2.258,-1.77,0.244
0.977,0.144,-0.022,-2.136,-2.563,-0.427
0.975,0.135,-0.024,-1.953,-2.502,-0.916
0.974,0.129,-0.024,-1.953,-2.502,-1.099
0.976,0.128,-0.02,-1.892,-2.686,-0.793
0.981,0.128,-0.019,-1.953,-2.563,-0.732
0.982,0.124,-0.014,-2.014,-2.258,-0.427
0.982,0.121,-0.012,-2.441,-1.587,-0.061
0.977,0.119,-0.016,-2.441,-0.793,0.427
0.971,0.108,-0.015,-2.441,-0.549,0.732
0.969,0.107,-0.006,-2.197,-0.916,1.282
0.971,0.107,-0.003,-1.587,-0.916,1.709
0.974,0.109,-0.01,-0.977,-0.549,1.831
0.976,0.106,-0.008,-0.061,-0.427,1.953
0.977,0.11,-0.008,0.061,-0.488,2.502
0.977,0.123,-0.006,0.244,0,3.174
0.977,0.118,-0.005,0.793,0.671,3.052
0.974,0.114,-0.01,1.343,1.038,2.869
0.974,0.122,-0.015,1.709,0.793,3.54
0.976,0.132,-0.015,1.709,0.305,4.15
0.975,0.141,-0.01,1.038,0.305,4.211
0.974,0.147,-0.021,0.916,1.526,3.357
0.971,0.136,-0.029,1.892,1.526,2.075
0.974,0.134,-0.033,2.686,0.366,1.77
0.981,0.145,-0.03,2.686,-0.61,2.502
0.985,0.155,-0.023,2.075,-1.099,2.93
0.981,0.16,-0.02,1.099,-0.61,2.808
0.979,0.16,-0.024,0.366,0.366,2.441
0.979,0.152,-0.029,0.366,0.793,1.77
0.977,0.151,-0.027,-0.061,0.671,2.014
,,,,,
2.375,0.092,1.478,-42.297,-96.802,90.088
2.603,0.237,1.518,-29.907,-62.683,98.755
2.609,0.406,1.245,-5.371,-12.878,97.717
2.513,0.615,0.814,11.353,31.799,94.299
2.458,0.802,0.424,19.226,56.213,83.984
2.398,1.004,0.146,22.827,57.8,62.378
2.113,1.017,0.019,23.071,45.349,26.367
1.974,0.799,0.019,18.066,32.043,-14.282
1.651,0.593,0.159,9.644,21.973,-42.786
1.297,0.327,0.193,3.845,18.555,-63.049
0.925,0.16,0.227,-0.61,22.888,-71.899
0.62,-0.02,0.189,-1.038,30.64,-73.792
0.439,-0.116,0.16,-3.54,37.17,-66.223
0.354,-0.127,0.156,-6.47,39.917,-52.49
0.332,-0.144,0.112,-5.615,40.344,-41.077
0.332,-0.136,0.078,-5.005,35.278,-31.799
0.406,-0.17,0.031,-6.226,23.376,-23.926
0.402,-0.092,0.131,-10.315,5.432,-15.381
0.459,-0.099,0.196,-9.094,-2.563,-11.475
0.559,-0.103,0.225,-7.69,1.648,-6.348
0.664,-0.091,0.214,-9.216,7.935,-0.122
0.754,-0.066,0.188,-7.812,10.62,6.714
0.883,-0.005,0.166,-3.784,8.728,14.526
1.013,0.073,0.169,4.578,3.662,23.437
1.13,0.187,0.194,14.465,-0.122,30.701
1.234,0.271,0.192,23.315,-0.671,32.227
1.302,0.301,0.177,29.846,1.587,28.259
1.342,0.315,0.166,30.334,4.272,22.705
1.367,0.328,0.151,27.161,4.211,16.968
1.364,0.328,0.146,22.156,1.038,10.437
1.304,0.314,0.176,14.648,-3.235,2.808
1.097,0.237,0.23,8.545,-5.249,-4.028
1.001,0.174,0.243,1.648,0.793,-6.165
0.96,0.169,0.162,-2.319,12.573,-2.747
1.007,0.206,0.102,-3.052,14.832,-0.122
0.957,0.203,0.115,-2.014,6.958,-2.808
0.923,0.174,0.159,-1.953,-2.075,-8.362
0.87,0.142,0.178,-2.93,-3.113,-11.719
0.911,0.107,0.148,-3.601,-0.183,-12.939
0.925,0.093,0.139,-4.15,-0.793,-12.451
0.937,0.085,0.163,-3.174,-5.127,-12.146
0.947,0.071,0.173,0.122,-7.263,-11.597
0.965,0.071,0.175,2.014,-6.775,-10.071
0.956,0.072,0.168,2.869,-4.639,-8.606
0.964,0.071,0.146,2.502,-2.625,-7.019
0.966,0.083,0.15,1.709,-2.563,-3.906
0.969,0.096,0.158,-0.854,-2.319,-1.282
0.961,0.101,0.169,-1.77,-1.953,0.61
0.96,0.096,0.186,-1.953,-1.282,1.587
0.951,0.103,0.19,-2.197,-0.061,2.686
0.944,0.133,0.168,-1.892,1.465,3.418
0.941,0.137,0.155,0.732,1.099,2.38
0.939,0.136,0.153,1.404,-0.671,0.427
0.953,0.142,0.16,1.953,-2.869,-0.244
0.956,0.157,0.172,2.258,-4.456,-0.793
0.964,0.148,0.169,3.113,-4.761,-2.258
0.96,0.152,0.182,3.357,-4.333,-3.174
0.996,0.162,0.174,2.747,-2.38,-3.357
0.979,0.148,0.175,2.075,-1.038,-3.723
0.966,0.154,0.172,0.977,0.244,-3.723
0.967,0.13,0.172,0.549,1.221,-3.784
0.962,0.15,0.177,0,2.808,-1.709
0.962,0.142,0.174,0.305,3.906,-1.953
0.952,0.12,0.153,0.122,4.15,-3.174
0.949,0.121,0.143,-0.854,2.319,-2.869
0.949,0.153,0.17,-1.404,-0.916,-1.892
0.956,0.146,0.178,0.183,-1.831,-3.174
0.954,0.113,0.171,1.282,-1.099,-5.737
0.946,0.095,0.164,1.038,-1.343,-6.165
0.953,0.099,0.165,0.366,-3.113,-4.944
0.959,0.097,0.171,-1.099,-4.578,-3.296
0.954,0.114,0.191,-2.747,-5.005,-2.136
0.957,0.117,0.198,-2.014,-4.517,-1.77
0.958,0.1,0.184,0.183,-2.686,-2.502
0.955,0.1,0.177,0.427,-2.197,-2.258
0.958,0.113,0.169,-0.427,-2.319,-1.099
0.958,0.127,0.164,-2.075,-2.625,-0.366
0.951,0.14,0.162,-3.357,-3.418,-0.427
0.952,0.143,0.166,-3.601,-4.578,-1.587
0.96,0.137,0.171,-2.747,-5.615,-2.93
0.915,0.125,0.184,-2.808,-5.371,-3.845
0.94,0.123,0.165,-4.761,-2.502,-2.991
0.945,0.132,0.165,-6.348,-0.732,-1.221
0.958,0.128,0.189,-6.836,-1.587,-1.221
0.974,0.122,0.185,-6.47,-0.854,-1.648
0.975,0.119,0.181,-6.226,-0.183,-1.709
0.975,0.116,0.176,-6.592,0,-1.709
0.975,0.125,0.176,-7.568,-0.549,-1.343
0.977,0.143,0.2,-7.507,-1.221,-1.465
0.973,0.118,0.2,-4.395,-0.793,-2.991
0.968,0.089,0.188,-3.174,0.549,-4.517
0.96,0.089,0.19,-4.211,1.16,-3.418
0.959,0.088,0.189,-5.188,1.709,-1.953
0.958,0.101,0.206,-5.554,2.075,-0.427
0.959,0.109,0.197,-4.639,3.723,0.61
0.952,0.102,0.175,-3.845,5.615,-0.061
0.951,0.1,0.156,-4.7,5.554,-0.549
0.954,0.093,0.168,-6.226,3.601,-0.122
0.951,0.105,0.182,-8.423,2.136,0.671
0.954,0.121,0.18,-8.85,2.258,0.61
0.953,0.108,0.17,-5.066,2.38,-0.366
0.974,0.123,0.175,-2.014,2.136,-0.061
0.959,0.125,0.178,-0.854,2.38,0
0.963,0.113,0.169,-0.671,3.235,-1.099
0.959,0.108,0.172,-0.916,3.357,-0.854
0.962,0.115,0.175,-1.892,3.052,0.183
0.966,0.124,0.173,-2.38,3.479,0.854
0.959,0.13,0.161,-2.991,4.578,0.732
0.956,0.129,0.149,-4.028,4.639,0.061
0.958,0.125,0.15,-4.822,3.296,-0.61
0.96,0.12,0.164,-5.615,1.892,-0.61
0.96,0.116,0.173,-5.554,1.404,-0.549
0.96,0.112,0.168,-5.066,2.197,-0.183
0.959,0.113,0.162,-4.639,2.625,0.244
0.96,0.117,0.158,-4.7,2.319,0.854
0.967,0.131,0.156,-6.042,2.075,1.343
0.963,0.141,0.154,-7.629,2.197,0.977
0.958,0.131,0.151,-7.996,2.258,-0.061
0.954,0.127,0.155,-9.277,1.77,-1.16
,,,,,
2.391,0.475,0.128,-12.207,-31.067,67.017
2.569,0.531,0.173,-15.686,-24.597,55.664
2.583,0.51,0.259,-20.752,-16.907,33.875
2.439,0.442,0.282,-24.963,-7.751,6.104
2.029,0.291,0.346,-31.433,1.282,-21.484
1.796,0.27,0.255,-38.391,17.334,-40.039
1.44,0.133,0.256,-43.396,24.17,-58.044
1.084,-0.008,0.298,-42.175,22.4,-71.655
0.797,-0.12,0.322,-34.668,22.278,-78.918
0.602,-0.201,0.278,-23.926,27.039,-78.247
0.444,-0.242,0.214,-14.832,32.593,-69.214
0.365,-0.232,0.133,-9.766,35.583,-54.932
0.386,-0.228,0.066,-6.287,33.447,-38.879
0.405,-0.168,0.073,-5.066,24.597,-22.644
0.48,-0.126,0.051,-1.587,16.174,-10.132
0.557,-0.099,0.048,1.831,6.348,-0.916
0.641,-0.036,0.11,6.042,-2.38,6.958
0.769,-0.015,0.07,10.498,-0.427,12.085
0.907,0.036,0.053,12.268,2.197,17.517
1.045,0.064,0.058,13.672,2.991,21.79
1.17,0.104,0.062,14.709,4.333,24.536
1.272,0.15,0.053,14.648,7.019,25.269
1.329,0.196,0.02,12.39,9.033,22.522
1.336,0.222,0,8.85,8.362,16.357
1.14,0.205,0.086,5.432,6.226,8.545
1.19,0.201,0.034,3.723,15.442,3.723
1.104,0.154,-0.068,5.127,22.644,2.258
1.075,0.183,-0.019,1.892,12.329,1.343
1.026,0.159,0.015,-0.61,3.479,-1.953
0.961,0.139,0.068,-2.441,0,-5.31
0.919,0.11,0.067,-2.625,2.319,-7.141
0.9,0.112,0.043,-1.648,5.554,-6.775
0.892,0.109,0.029,-1.404,6.592,-6.042
0.884,0.092,0.03,-1.526,6.287,-5.981
0.884,0.076,0.036,-1.099,5.31,-5.676
0.924,0.062,0.017,-0.916,4.883,-5.188
0.951,0.06,-0.006,-0.427,2.258,-4.272
0.966,0.051,0.026,-0.488,-3.174,-4.456
0.984,0.045,0.045,-0.61,-5.676,-5.188
0.981,0.037,0.049,0.549,-4.822,-5.432
0.974,0.029,0.048,1.648,-2.625,-5.249
0.992,0.03,0.038,2.502,-0.366,-4.028
1.003,0.032,0.046,2.38,0.671,-2.38
0.989,0.032,0.07,2.38,0.671,-1.587
0.978,0.019,0.076,2.136,2.502,-0.916
0.97,0.021,0.059,1.282,4.822,0.793
0.96,0.049,0.058,0.793,5.249,2.869
0.959,0.054,0.047,1.648,4.578,2.808
0.956,0.064,0.037,1.953,2.991,1.892
0.958,0.063,0.034,2.563,0.061,0.854
0.962,0.06,0.033,2.441,-2.686,0
0.97,0.078,0.041,1.831,-5.676,0.549
0.987,0.099,0.058,2.075,-7.874,0.549
0.995,0.097,0.062,3.723,-7.324,-0.793
0.994,0.087,0.047,4.395,-5.188,-1.648
0.993,0.085,0.035,4.028,-4.517,-1.282
0.993,0.094,0.05,2.502,-4.517,-0.305
0.991,0.1,0.073,1.282,-2.93,0.244
0.994,0.093,0.043,2.136,0.732,0.305
0.99,0.084,0.017,2.747,2.075,0
0.984,0.085,0.022,1.77,-0.549,0.061
0.974,0.073,0.041,0.488,-2.869,-0.122
0.979,0.072,0.063,-0.916,-3.296,0.061
0.985,0.081,0.079,-0.061,-1.587,0.549
0.952,0.055,0.071,2.563,1.343,-0.305
0.998,0.063,0.021,3.174,3.784,-0.549
0.961,0.053,0.068,2.991,0.854,-0.916
0.985,0.054,0.086,1.831,-0.671,-1.099
0.999,0.031,0.061,1.953,1.526,-1.221
0.991,0.078,0.071,1.526,0.977,0.549
0.979,0.063,0.058,2.625,0.793,-0.427
0.978,0.05,0.046,2.991,0.732,-1.587
0.982,0.061,0.052,1.77,-0.549,-0.183
0.991,0.073,0.071,0.549,-1.587,1.282
0.993,0.08,0.073,0.305,-0.61,1.709
0.99,0.076,0.057,1.526,1.587,1.587
0.986,0.078,0.036,2.502,2.563,1.892
0.988,0.092,0.024,2.136,2.075,2.502
0.987,0.107,0.016,1.282,0.732,2.319
0.985,0.105,0.019,-0.061,-0.854,1.282
0.982,0.1,0.028,-1.343,-2.197,0.061
0.982,0.092,0.048,-1.831,-3.235,-1.038
0.984,0.083,0.051,-1.587,-3.357,-1.77
0.986,0.07,0.049,-1.587,-2.869,-2.014
0.985,0.062,0.072,-1.77,-2.991,-1.77
0.986,0.048,0.101,-1.282,-2.686,-1.221
0.987,0.043,0.102,-0.549,-0.732,-0.366
0.978,0.043,0.078,0.366,2.319,0.671
0.976,0.05,0.048,0.488,4.089,1.77
0.971,0.06,0.036,0.427,3.601,2.686
0.971,0.072,0.033,-0.122,2.014,2.563
0.976,0.073,0.04,0.061,0.244,1.404
0.976,0.076,0.044,0.549,-0.427,0.305
0.978,0.07,0.028,0.549,-0.61,-0.671
0.981,0.067,0.031,0.061,-1.587,-1.099
0.991,0.081,0.05,-0.549,-2.869,-0.977
0.99,0.066,0.066,0,-2.502,-1.404
0.989,0.052,0.073,0.244,-1.77,-1.343
0.984,0.054,0.072,0.122,-0.793,0.183
0.982,0.058,0.064,-0.244,-0.122,1.465
0.987,0.069,0.061,-0.488,0.244,2.136
0.986,0.078,0.068,-0.916,0.916,2.197
0.978,0.082,0.048,-0.732,2.441,1.526
0.974,0.083,0.031,-0.305,2.502,0.671
0.977,0.087,0.03,-0.366,0.549,0.183
0.983,0.089,0.034,-0.732,-0.977,-0.549
0.986,0.086,0.033,-1.16,-1.648,-1.099
0.988,0.085,0.034,-2.075,-2.258,-1.404
0.988,0.073,0.049,-2.563,-2.563,-1.587
0.988,0.063,0.068,-2.991,-2.808,-1.526
0.989,0.064,0.067,-3.052,-1.892,-1.221
0.984,0.063,0.063,-2.319,-0.549,-1.16
0.98,0.053,0.064,-2.014,0.366,-1.038
0.98,0.055,0.064,-1.892,0.61,-0.061
0.975,0.056,0.061,-1.648,0.732,1.038
0.972,0.06,0.059,-1.526,0.671,1.526
0.973,0.063,0.053,-1.099,0.183,1.648
0.978,0.066,0.056,-0.916,-0.427,1.648
0.981,0.075,0.061,-1.038,-0.916,1.526
,,,,,
2.553,0.339,0.439,-69.641,-188.232,151.855
2.833,0.406,0.642,-80.383,-188.293,171.204
3.36,0.74,0.619,-92.163,-176.147,197.266
3.627,1.099,0.856,-92.163,-177.246,192.566
3.619,1.208,1.111,-75.256,-172.607,134.399
3.317,0.978,1.207,-51.88,-138.916,47.424
3.205,0.362,1.09,-32.654,-95.703,-29.846
2.653,-0.075,1.178,-29.114,-68.542,-57.129
2.266,-0.176,1.134,-38.086,-36.865,-39.001
1.967,-0.302,0.997,-37.598,-4.639,-26.123
1.72,-0.245,0.776,-37.964,17.761,-12.39
1.413,-0.091,0.57,-32.349,29.48,-3.54
1.106,-0.041,0.418,-23.682,34.485,-8.606
0.842,-0.078,0.286,-14.343,38.696,-18.066
0.663,-0.127,0.211,-9.644,39.368,-20.691
0.569,-0.147,0.2,-8.85,35.522,-13.794
0.532,-0.107,0.244,-11.23,30.579,-2.38
0.61,-0.02,0.225,-14.954,29.907,6.958
0.654,0.045,0.244,-17.212,28.564,10.132
0.659,0.068,0.274,-17.029,25.146,8.85
0.646,0.067,0.289,-10.62,23.315,6.531
0.669,0.074,0.261,-3.723,24.353,6.226
0.717,0.08,0.233,0.183,24.841,8.057
0.764,0.113,0.209,3.296,22.278,10.986
0.818,0.147,0.203,4.578,17.761,12.085
0.853,0.157,0.207,5.188,14.038,9.521
0.897,0.149,0.193,5.859,11.353,6.104
0.927,0.15,0.217,7.019,5.554,3.601
0.961,0.156,0.251,9.277,0.305,2.197
0.984,0.179,0.261,10.559,-0.061,2.441
0.997,0.2,0.246,8.728,4.822,3.845
0.991,0.222,0.248,4.822,10.986,5.066
0.999,0.236,0.244,-0.366,16.846,5.554
1.001,0.226,0.215,-3.601,21.973,4.639
0.984,0.22,0.2,-3.54,23.987,4.028
0.974,0.203,0.202,-3.601,22.461,4.028
0.974,0.19,0.188,-4.7,20.142,3.845
0.986,0.17,0.18,-4.761,15.564,3.479
0.956,0.19,0.231,-4.7,8.484,3.235
0.924,0.168,0.2,-2.502,8.85,2.197
0.915,0.156,0.187,-1.221,9.338,1.099
0.921,0.152,0.204,-0.793,6.592,1.343
0.919,0.147,0.22,-0.671,4.15,1.16
0.922,0.146,0.224,-0.732,2.991,-0.061
0.926,0.143,0.217,0.671,2.075,-1.099
0.925,0.143,0.216,2.136,0.854,-1.648
0.922,0.142,0.214,3.174,-0.183,-2.075
0.935,0.148,0.198,3.54,-1.099,-2.991
0.936,0.151,0.184,4.761,-2.014,-4.517
0.942,0.158,0.161,4.7,-2.38,-5.554
0.961,0.181,0.126,3.54,-2.93,-5.859
0.973,0.2,0.109,1.038,-4.272,-6.287
0.902,0.161,0.155,-2.014,-5.432,-7.263
0.921,0.196,0.158,-3.845,-1.831,-5.493
0.951,0.153,0.127,-2.563,3.662,-3.845
0.989,0.167,0.16,-3.906,3.235,-0.977
1.015,0.176,0.216,-4.578,1.282,1.221
1.021,0.152,0.26,-2.808,2.197,0.854
1.021,0.144,0.247,-0.305,5.188,-0.366
0.989,0.128,0.225,2.502,7.751,-0.183
0.967,0.131,0.209,3.723,10.559,1.465
0.959,0.14,0.176,3.601,14.526,3.54
1.04,0.162,0.108,3.357,15.381,4.272
1.052,0.166,0.157,3.052,7.141,2.319
1.027,0.161,0.217,2.014,0.549,-0.549
1.003,0.133,0.213,1.221,2.197,-2.93
1.002,0.154,0.209,0.427,4.578,-3.174
0.994,0.171,0.182,1.587,6.897,-3.662
0.982,0.163,0.156,3.113,8.85,-6.47
0.953,0.118,0.168,4.089,8.972,-8.85
0.924,0.09,0.203,3.723,8.362,-8.484
0.915,0.076,0.21,3.357,9.094,-5.615
0.918,0.091,0.212,3.235,9.583,-2.686
0.918,0.113,0.196,3.418,10.376,-1.404
0.922,0.138,0.174,4.15,11.23,-1.343
0.916,0.143,0.167,4.578,11.475,-2.441
0.923,0.148,0.158,4.883,11.719,-3.113
0.923,0.16,0.159,4.639,11.292,-3.723
0.925,0.152,0.163,4.761,10.925,-5.005
0.941,0.147,0.174,5.005,10.62,-6.165
0.948,0.131,0.183,4.272,10.193,-7.385
0.926,0.124,0.18,4.089,9.338,-8.24
0.892,0.114,0.159,3.845,9.766,-8.789
0.889,0.092,0.135,2.808,10.254,-7.935
0.896,0.101,0.145,1.526,7.812,-4.944
0.922,0.115,0.128,1.831,5.249,-2.563
0.971,0.136,0.127,2.197,3.113,-1.587
0.992,0.15,0.154,1.526,1.16,-1.709
0.994,0.137,0.172,0.671,2.441,-2.686
0.975,0.137,0.18,-0.488,5.493,-3.54
0.976,0.127,0.166,0,9.338,-4.211
1,0.122,0.152,-0.061,11.658,-4.517
1.017,0.136,0.15,-0.732,11.108,-4.456
1.024,0.147,0.157,-1.404,9.277,-5.005
1.017,0.156,0.148,-2.808,8.545,-6.409
1.008,0.171,0.124,-3.296,8.484,-8.606
1.001,0.175,0.094,-4.089,8.606,-10.193
1.008,0.155,0.117,-5.859,8.179,-12.329
0.997,0.141,0.113,-5.432,8.118,-14.099
1.001,0.138,0.117,-6.531,8.484,-13.794
1.023,0.114,0.112,-7.446,8.057,-13.123
1.039,0.08,0.151,-8.606,5.737,-12.329
1.047,0.066,0.161,-7.446,3.906,-10.437
1.067,0.065,0.174,-6.897,2.319,-6.653
1.076,0.071,0.185,-5.127,1.892,-4.028
1.075,0.067,0.191,-4.089,3.418,-2.686
1.07,0.051,0.171,-3.174,6.104,-2.258
1.072,0.063,0.152,-3.601,7.202,-0.854
1.069,0.066,0.158,-4.211,6.653,0.244
1.068,0.057,0.167,-4.944,6.775,0.793
1.055,0.058,0.171,-5.981,7.874,1.77
1.047,0.076,0.158,-6.47,9.216,2.808
1.034,0.098,0.15,-6.226,9.583,2.38
1.019,0.107,0.132,-4.578,9.155,0.61
1.001,0.1,0.135,-2.319,8.728,-1.465
0.974,0.092,0.147,-1.831,9.521,-2.319
0.965,0.092,0.137,-1.77,12.451,-1.892
0.95,0.082,0.117,-2.38,15.747,-0.732
0.956,0.074,0.117,-3.662,17.517,2.258
,,,,,
2.488,-0.116,-0.005,11.841,-120.3,3.845
2.149,-0.408,0.245,19.653,-117.432,-9.949
1.993,-0.238,0.123,15.076,-77.942,12.817
2.059,-0.173,-0.016,9.766,-36.255,36.621
2.211,0.119,0.108,-0.977,-21.118,64.148
2.39,0.307,0.333,-8.423,-20.02,75.439
2.458,0.414,0.538,-10.742,-18.738,69.153
2.411,0.499,0.628,-10.498,-12.817,54.199
2.159,0.469,0.64,-5.676,-5.432,30.518
1.865,0.402,0.532,-0.854,3.54,6.775
1.535,0.304,0.367,2.625,11.963,-9.766
1.271,0.25,0.275,2.197,12.573,-17.334
1.032,0.213,0.294,1.038,9.705,-19.958
0.875,0.15,0.202,0.488,14.221,-20.447
0.784,0.165,0.13,0.122,17.09,-17.212
0.716,0.163,0.041,0.122,16.663,-14.648
0.702,0.158,-0.033,-1.282,13.794,-13.184
0.686,0.126,-0.001,-4.639,6.165,-10.864
0.681,0.055,0.033,-7.996,1.282,-7.935
0.723,0.042,0.089,-10.315,-1.404,-1.953
0.875,0.063,0.066,-10.742,-2.197,4.089
0.883,0.06,0.116,-10.62,-6.287,7.141
0.932,0.103,0.147,-10.925,-5.92,7.812
0.969,0.051,0.105,-10.01,2.808,3.967
0.993,0.032,0.081,-9.216,5.981,1.587
1.01,0.033,0.091,-8.728,3.357,0.305
1.017,0.027,0.11,-8.545,0.122,-1.77
1.013,0.015,0.139,-8.606,-1.465,-4.089
0.997,-0.008,0.146,-8.301,-0.977,-6.042
0.994,-0.035,0.154,-7.507,0.183,-6.775
1.002,-0.053,0.167,-6.958,0.732,-5.981
1.021,-0.056,0.186,-7.385,0.916,-5.005
0.983,-0.088,0.251,-6.409,-0.366,-4.578
0.955,-0.102,0.257,-4.211,2.563,-3.54
0.937,-0.099,0.205,-1.099,7.935,-1.16
0.939,-0.07,0.164,0.793,9.888,2.136
0.936,-0.016,0.141,1.465,8.789,4.639
0.941,0.009,0.13,2.502,6.348,4.028
0.945,0.022,0.121,5.005,4.028,2.38
0.961,0.038,0.108,7.324,2.38,1.343
0.974,0.075,0.087,7.324,0.977,0.916
0.976,0.098,0.071,6.836,-0.488,-0.427
0.979,0.11,0.079,6.287,-1.953,-2.808
0.986,0.092,0.105,5.859,-2.747,-5.554
0.987,0.079,0.106,5.371,-2.747,-6.409
0.99,0.084,0.093,4.272,-2.38,-5.432
0.99,0.103,0.087,2.625,-2.563,-4.15
0.995,0.104,0.1,1.77,-2.563,-3.54
1,0.101,0.111,1.404,-2.197,-3.235
1.001,0.1,0.096,0.916,-1.038,-2.686
1.006,0.106,0.078,0.061,-0.305,-1.892
1.011,0.12,0.082,-1.526,-0.061,-0.977
1.011,0.111,0.101,-2.075,0.854,-0.977
1.01,0.089,0.098,-2.93,3.235,-1.16
1.039,0.086,0.072,-4.578,4.7,0.122
1.078,0.104,0.065,-6.165,2.808,1.099
1.079,0.116,0.129,-7.019,-2.38,-0.244
1.06,0.087,0.136,-4.761,-2.869,-3.723
1.043,0.05,0.121,-1.892,-1.709,-7.141
1.019,0.031,0.096,-1.587,-1.404,-8.057
1.011,0.021,0.09,-2.197,-1.953,-7.385
0.999,0.016,0.099,-4.089,-2.197,-5.981
0.971,0.029,0.133,-5.066,-2.014,-5.005
0.953,-0.005,0.107,-2.625,0.244,-5.981
0.934,-0.03,0.111,-0.916,1.099,-5.737
0.93,-0.024,0.113,-1.587,0.549,-3.418
0.919,-0.005,0.131,-2.563,0.977,-1.709
0.902,0.014,0.124,-2.563,2.563,-1.77
0.893,0.007,0.099,0.122,2.686,-3.418
0.892,-0.004,0.099,2.136,0.305,-5.127
0.886,-0.001,0.105,2.136,-1.587,-4.761
0.88,0,0.113,1.221,-1.465,-3.479
0.887,-0.004,0.121,0.732,-0.488,-2.136
0.912,0.003,0.111,0.549,0.305,-0.732
0.957,0.028,0.107,0.793,-1.038,0.488
0.98,0.064,0.135,2.075,-3.906,0.183
0.988,0.051,0.143,4.089,-4.211,-2.625
0.982,0.044,0.129,5.31,-2.808,-4.517
0.979,0.045,0.11,5.31,-1.953,-4.517
0.979,0.056,0.104,4.456,-1.953,-3.601
0.976,0.063,0.104,4.028,-2.686,-2.808
0.975,0.059,0.11,3.479,-3.784,-2.93
0.972,0.054,0.102,2.38,-2.808,-2.502
0.979,0.043,0.099,0.854,-1.587,-1.709
0.987,0.047,0.112,-1.038,-1.16,0.061
0.996,0.062,0.113,-2.441,-0.732,1.404
1.009,0.06,0.108,-2.38,-0.61,0.793
1.022,0.059,0.112,-2.625,-1.038,-0.366
1.007,0.058,0.137,-2.625,-1.648,-1.343
0.992,0.052,0.137,-2.136,0.183,-2.563
0.98,0.033,0.117,-0.916,3.54,-3.54
0.97,0.014,0.12,-0.183,4.578,-3.418
0.972,0.006,0.119,0.122,3.601,-2.38
0.976,0.017,0.125,0.305,3.235,-1.16
0.992,0.022,0.133,0.366,3.54,-0.732
0.972,0.009,0.115,1.343,4.883,-0.916
0.972,0.01,0.104,0.244,5.493,-0.916
0.974,0.006,0.117,-0.061,4.395,-0.854
1.005,0.011,0.099,0.488,3.845,-0.244
1.002,0.019,0.117,-0.122,2.38,-0.305
0.991,0.013,0.119,0.122,1.343,-1.16
0.962,-0.001,0.122,0.183,2.502,-1.282
0.959,-0.003,0.128,0.061,3.723,-0.122
0.955,-0.001,0.1,0.305,5.188,2.014
0.972,0.011,0.095,-1.343,4.822,4.028
0.984,0.027,0.104,-1.526,3.601,4.822
0.999,0.027,0.111,-1.404,2.197,4.15
0.999,0.033,0.119,-0.549,0.61,2.686
0.978,0.028,0.109,0.671,-0.183,1.343
0.966,0.022,0.12,0.61,-0.732,0.244
0.955,0.028,0.123,1.831,-1.16,0.183
0.953,0.033,0.1,2.136,-0.183,0.183
0.953,0.036,0.095,1.953,0.183,0.244
0.958,0.036,0.097,1.221,0,0.549
0.969,0.033,0.096,0.854,0,0.732
0.986,0.041,0.104,0.183,-0.549,0.977
0.986,0.046,0.115,-0.061,-1.343,0.977
0.986,0.037,0.111,0.427,-0.916,0.122
0.987,0.037,0.113,0.305,-0.549,0.061