aX,aY,aZ,gX,gY,gZ
1.054,0.312,0.92,-32.715,47.607,-95.398
1.109,-0.455,0.674,-53.65,57.861,-98.572
1.087,-0.706,0.549,-68.665,43.884,-55.054
1.054,-0.452,0.623,-68.909,22.4,-4.883
0.985,-0.169,0.78,-63.782,6.714,15.015
1,0.062,0.883,-55.725,2.686,15.015
1.058,0.229,1.062,-53.101,4.761,6.958
1.064,0.345,1.186,-55.969,15.686,-8.362
1.214,0.285,1.31,-59.326,32.837,-32.043
1.204,0.172,1.328,-64.758,57.312,-58.472
1.214,0.083,1.301,-69.885,76.05,-71.472
1.251,-0.245,1.267,-88.257,77.332,-56.702
1.137,-0.257,1.237,-108.826,68.848,-20.935
1.142,-0.023,1.29,-114.99,58.716,7.385
1.058,-0.009,1.366,-122.864,58.838,10.254
0.831,0.055,1.281,-128.113,70.435,3.906
0.871,0.079,1.289,-135.01,69.641,5.31
0.854,-0.165,1.223,-144.348,77.087,-3.418
0.712,-0.379,0.93,-146.24,91.37,-16.846
0.695,-0.534,0.669,-147.949,90.942,-17.029
0.595,-0.589,0.529,-153.931,77.148,-8.118
0.553,-0.434,0.387,-154.663,59.814,0.732
0.631,-0.581,0.275,-158.264,46.326,-0.061
0.611,-0.982,-0.019,-162.415,46.387,-9.766
0.584,-1.278,-0.371,-157.776,44.373,-9.949
0.561,-1.464,-0.611,-148.071,27.466,2.197
0.564,-1.46,-0.77,-135.498,7.446,16.235
0.587,-1.441,-0.861,-118.225,-7.019,19.714
0.55,-1.346,-0.917,-99.243,-18.616,18.86
0.555,-1.146,-0.941,-81.543,-31.982,24.292
0.568,-0.909,-0.792,-67.932,-48.279,30.457
0.673,-0.594,-0.65,-56.091,-61.523,31.128
0.858,-0.468,-0.501,-48.706,-66.589,21.606
0.978,-0.469,-0.434,-44.495,-60.852,10.193
1.025,-0.419,-0.476,-37.781,-48.828,2.869
1.066,-0.451,-0.507,-31.372,-38.025,-3.113
1.064,-0.486,-0.547,-26.001,-28.748,-5.31
1.045,-0.441,-0.561,-20.325,-21.729,-3.967
0.989,-0.321,-0.508,-13.55,-18.066,-1.648
0.978,-0.147,-0.441,-8.118,-15.503,0.366
0.948,-0.028,-0.37,-7.019,-11.597,0.183
0.948,0.06,-0.354,-7.629,-7.08,-1.77
0.95,0.112,-0.349,-8.362,-2.808,-3.967
0.938,0.052,-0.384,-11.658,2.136,-8.789
0.924,-0.033,-0.443,-13.062,4.028,-12.39
0.909,-0.042,-0.424,-11.658,-0.305,-10.376
0.968,-0.049,-0.382,-8.484,-5.31,-8.85
1.019,-0.077,-0.338,-5.249,-7.874,-9.583
1.089,-0.106,-0.308,-1.587,-7.812,-10.925
1.123,-0.109,-0.278,1.465,-7.446,-10.315
1.13,-0.055,-0.235,4.456,-6.775,-6.653
1.121,0.009,-0.202,6.775,-5.676,-3.174
1.129,-0.005,-0.197,7.202,-4.15,-2.197
1.105,-0.033,-0.191,7.08,-3.235,-1.099
1.082,0.014,-0.159,8.545,-4.395,1.221
1.062,0.053,-0.11,10.071,-5.31,1.831
1.064,0.055,-0.1,9.827,-4.822,0.549
1.074,0.046,-0.075,9.399,-5.066,-0.977
1.09,0.05,-0.05,9.338,-4.578,-2.441
1.099,0.049,-0.048,9.46,-2.747,-5.005
1.092,0.02,-0.057,9.338,-1.099,-7.019
1.087,-0.023,-0.084,8.85,-0.916,-5.92
1.089,-0.044,-0.098,9.033,-1.526,-2.93
1.089,-0.038,-0.107,9.521,-2.136,-0.488
1.092,-0.065,-0.117,8.484,-2.319,1.404
1.1,-0.098,-0.115,8.118,-2.38,2.136
1.114,-0.089,-0.103,9.644,-2.38,2.625
1.119,-0.057,-0.083,10.315,-2.502,2.869
1.117,-0.023,-0.06,10.681,-2.075,3.357
1.113,0.021,-0.03,11.047,-1.099,3.967
1.106,0.03,-0.024,10.132,1.038,3.235
1.09,0.032,-0.036,8.179,2.747,3.052
1.088,0.012,-0.035,6.531,3.174,2.686
1.075,0.001,-0.043,6.287,4.333,2.441
1.04,-0.012,-0.066,7.69,5.859,3.174
1.016,-0.008,-0.083,9.766,5.188,5.005
1.004,-0.006,-0.079,10.925,3.052,7.08
1.021,-0.028,-0.064,10.986,0.671,8.972
1.039,-0.031,-0.048,10.62,-0.366,10.559
1.056,-0.037,-0.056,11.475,0.549,10.437
1.06,-0.032,-0.062,10.925,1.587,9.888
1.034,0.004,-0.042,10.437,1.831,8.728
1.027,0.01,-0.025,10.071,2.563,6.592
1.015,0.001,-0.02,7.935,2.991,6.042
1.009,0.009,-0.029,6.592,2.808,7.202
1.013,0.015,-0.011,5.981,1.892,8.24
1.032,0.033,-0.008,5.554,1.892,8.423
0.994,0.023,0.02,4.822,1.465,8.423
1.063,0.016,-0.03,2.319,2.808,8.301
1.004,-0.004,0.003,2.625,3.357,8.667
1,-0.018,-0.031,3.906,6.042,8.24
0.997,-0.032,-0.06,5.005,7.812,7.141
0.978,-0.037,-0.061,5.31,6.958,7.507
0.984,-0.015,-0.033,5.737,5.005,8.911
0.987,0.028,0.016,5.92,4.028,9.705
0.975,0.059,0.031,6.653,4.883,8.179
0.963,0.089,0.043,6.409,5.493,6.714
0.959,0.107,0.057,4.822,4.944,7.202
0.958,0.12,0.076,2.258,3.662,8.972
0.96,0.133,0.061,-0.183,3.174,10.254
0.96,0.119,0.034,-2.441,3.784,8.85
0.962,0.083,0.005,-4.089,4.883,6.592
0.962,0.05,-0.007,-4.639,4.7,4.883
0.968,0.027,-0.034,-3.845,3.601,3.784
1.034,0.006,-0.076,-2.319,1.953,3.479
0.953,-0.023,-0.006,-1.709,-0.854,4.822
1.07,-0.02,-0.123,-0.916,0.183,5.249
1.024,-0.044,-0.075,0.549,-2.258,5.615
1.045,-0.014,-0.07,-0.244,-3.845,9.216
1.042,0.027,-0.051,0.183,-4.761,12.39
1.031,0.057,-0.031,1.709,-3.54,11.902
0.999,0.088,-0.043,3.235,-0.732,10.803
0.948,0.113,-0.03,4.15,1.892,9.766
0.915,0.146,-0.031,3.54,3.235,7.935
0.906,0.125,-0.033,1.221,2.93,5.737
0.899,0.09,-0.052,-1.282,2.136,4.578
0.902,0.068,-0.075,-1.709,1.16,3.174
0.905,0.048,-0.074,-1.282,-0.854,2.319
0.908,0.035,-0.086,-1.404,-3.052,3.235
,,,,,
1.209,-0.398,0.484,-30.396,-10.925,23.437
1.104,-0.136,0.602,-28.625,-22.583,26.428
0.976,0.087,0.682,-29.907,-25.391,19.348
0.88,0.142,0.731,-28.442,-17.334,4.272
0.894,0.15,0.683,-39.307,-12.939,1.953
0.948,0.021,0.598,-57.983,-13.489,10.254
1.097,-0.183,0.482,-70.313,-16.174,15.259
1.208,-0.283,0.381,-79.407,-21.606,23.254
1.227,-0.224,0.345,-81.97,-27.954,29.419
1.151,-0.028,0.307,-79.102,-31.494,30.457
1.055,0.178,0.374,-78.125,-35.217,30.701
0.97,0.347,0.465,-80.261,-35.4,27.588
0.942,0.501,0.477,-80.383,-26.794,15.869
1.029,0.324,0.493,-80.261,-10.376,-6.531
1.081,0.04,0.274,-84.839,6.958,-23.315
1.232,-0.329,0.091,-93.323,7.202,-19.348
1.377,-0.562,0.008,-105.774,-7.202,1.77
1.37,-0.485,-0.042,-109.009,-19.104,27.1
1.277,-0.282,-0.014,-102.783,-23.071,40.222
1.142,-0.115,0.055,-97.046,-21.851,43.823
0.917,0.099,0.094,-94.482,-17.822,44.067
0.799,0.308,0.179,-90.576,-15.991,38.208
0.886,0.189,0.339,-93.323,-12.39,21.729
0.914,0.027,0.293,-94.36,4.822,1.099
0.928,-0.151,0.129,-90.515,18.921,-11.475
0.914,-0.32,0.026,-96.802,13.672,-5.249
0.885,-0.27,0.036,-103.577,-2.563,14.038
0.808,-0.126,0.126,-102.051,-14.221,22.4
0.721,-0.01,0.155,-99.609,-17.883,20.447
0.668,-0.054,0.193,-103.149,-20.691,15.32
0.698,-0.116,0.191,-105.835,-22.583,9.644
0.792,-0.266,0.153,-107.361,-22.339,4.761
0.844,-0.461,0.038,-109.741,-20.752,1.892
0.893,-0.574,-0.06,-106.628,-21.606,2.808
0.903,-0.599,-0.077,-100.891,-24.231,5.92
0.845,-0.533,-0.109,-93.689,-26.428,9.46
0.762,-0.405,-0.023,-86.975,-32.959,12.634
0.659,-0.175,0.125,-81.726,-39.185,16.357
0.595,0.024,0.263,-80.078,-42.725,16.052
0.626,0.018,0.292,-85.205,-42.542,10.01
0.681,-0.127,0.251,-90.759,-39.368,2.258
0.775,-0.238,0.196,-91.797,-35.034,-2.075
0.815,-0.374,0.114,-92.224,-28.564,-4.639
0.838,-0.469,0.006,-91.248,-23.376,-3.906
0.8,-0.452,0.017,-88.684,-24.902,-0.61
0.758,-0.374,-0.011,-81.97,-26.489,0.732
0.731,-0.394,-0.057,-75.623,-28.076,-0.977
0.717,-0.403,-0.075,-71.228,-33.02,-1.709
0.744,-0.411,-0.035,-67.505,-39.429,-2.808
0.794,-0.428,0.025,-63.843,-42.053,-6.653
0.873,-0.474,0.084,-60.059,-39.429,-11.719
0.884,-0.5,0.08,-59.448,-34.119,-12.451
0.815,-0.446,0.037,-57.861,-29.236,-10.62
0.79,-0.416,0.025,-52.246,-25.879,-10.742
0.802,-0.423,-0.007,-47.363,-21.973,-11.78
0.712,-0.344,-0.094,-40.161,-17.09,-15.808
0.551,-0.167,-0.151,-26.245,-16.052,-21.484
0.532,0.009,-0.038,-20.264,-27.344,-25.208
0.611,0.044,0.055,-24.475,-37.964,-29.602
0.735,-0.088,0.077,-29.358,-38.513,-38.025
0.957,-0.313,0.063,-32.776,-32.41,-46.204
1.114,-0.416,-0.089,-36.987,-22.888,-42.603
1.218,-0.54,-0.229,-36.56,-12.695,-39.49
1.223,-0.538,-0.407,-27.344,-2.441,-39.795
1.208,-0.536,-0.49,-16.724,2.075,-36.56
1.218,-0.585,-0.479,-12.756,-3.052,-29.663
1.266,-0.612,-0.405,-11.108,-9.583,-20.203
1.266,-0.521,-0.381,-9.399,-9.644,-9.827
1.109,-0.332,-0.39,-5.859,-4.639,-2.869
0.963,0.01,-0.432,0.854,-2.747,-1.404
0.811,0.335,-0.423,3.906,-5.859,0.061
0.795,0.432,-0.381,-2.869,-13,1.77
0.909,0.344,-0.307,-15.808,-19.653,2.686
1.064,0.165,-0.337,-24.292,-15.747,0.244
1.21,-0.007,-0.403,-22.034,-5.798,-5.615
1.276,-0.052,-0.5,-14.221,2.808,-10.071
1.216,0.018,-0.563,-5.005,8.606,-9.949
1.123,0.135,-0.561,2.258,6.287,-7.263
1.064,0.261,-0.5,5.676,-3.113,-4.272
1.014,0.407,-0.404,5.493,-13.489,-1.404
1.05,0.432,-0.279,3.784,-21.301,-1.892
1.137,0.391,-0.147,0,-23.926,-4.7
1.204,0.38,-0.038,-2.258,-19.165,-7.507
1.245,0.385,-0.017,-1.038,-10.193,-9.827
1.261,0.302,-0.024,1.831,-3.174,-11.23
1.282,0.233,0.016,2.319,-3.967,-8.24
1.295,0.246,0.125,0.366,-8.057,-2.625
1.288,0.309,0.229,0.183,-7.324,0.061
1.267,0.344,0.304,1.343,-1.099,-2.563
1.235,0.344,0.331,2.441,8.484,-6.775
1.197,0.299,0.3,3.052,17.578,-10.254
1.173,0.218,0.262,1.526,20.386,-10.925
1.146,0.149,0.22,-2.625,18.188,-7.874
1.114,0.121,0.202,-6.714,14.221,-4.15
1.103,0.096,0.18,-7.812,13.855,-3.54
1.063,0.084,0.118,-7.263,17.273,-5.005
1.022,0.076,0.048,-4.944,20.081,-6.958
1.018,0.005,0.004,-3.418,18.799,-8.728
1.023,-0.075,-0.04,-2.136,14.648,-7.446
1.024,-0.099,-0.058,-0.549,8.667,-3.357
1.003,-0.071,-0.061,1.648,3.601,0.122
0.99,-0.064,-0.031,3.296,0.061,2.014
0.945,-0.033,0.031,3.54,-2.014,4.15
0.954,-0.005,0.047,3.662,-2.258,4.272
0.971,-0.019,0.063,3.357,-1.404,2.686
0.984,-0.016,0.074,2.258,0.671,2.686
0.995,-0.041,0.067,2.747,4.639,2.197
0.983,-0.043,0.036,5.066,9.094,1.77
0.924,-0.014,0.038,6.714,12.268,1.404
0.9,0.014,0.032,6.531,12.329,0.488
0.911,-0.018,0.031,4.333,9.521,0.549
0.929,-0.053,0.025,0.916,5.493,2.563
0.934,-0.082,0.016,0.916,2.747,3.845
0.935,-0.064,0.018,4.578,1.465,2.258
0.946,-0.05,0.017,6.836,0.854,0.61
0.927,-0.039,0.023,7.324,-0.061,-0.244
0.944,-0.039,0.038,8.423,-1.587,-0.427
0.967,-0.024,0.072,7.019,-2.502,0.671
0.972,-0.005,0.089,5.493,-0.732,0.793
,,,,,
0.996,0.122,0.963,25.757,0.122,8.118
1.295,-0.053,0.62,23.376,24.353,-0.305
1.213,-0.157,0.528,19.592,21.423,-1.038
1.238,-0.201,0.449,6.958,18.616,2.38
1.316,-0.186,0.482,-0.061,7.324,14.893
1.329,-0.19,0.582,-11.841,4.089,28.931
1.332,-0.339,0.53,-19.348,11.108,34.729
1.337,-0.445,0.382,-15.137,23.804,29.907
1.318,-0.48,0.191,-3.296,30.09,23.682
1.224,-0.405,0.085,7.263,26.672,21.362
1.098,-0.223,0.033,12.085,18.677,21.484
0.921,-0.182,0.074,13.306,13.123,16.846
0.873,-0.204,0.057,10.62,11.719,13.428
0.907,-0.308,0.062,12.512,11.78,12.085
0.971,-0.401,0.129,8.423,11.597,9.949
1.04,-0.456,0.146,0.854,15.442,8.179
1.026,-0.479,0.114,-0.366,22.949,7.08
1.019,-0.396,0.101,-5.432,27.1,8.24
0.864,-0.279,0.109,-11.475,26.733,7.812
0.85,-0.215,0.094,-17.822,21.729,7.507
0.886,-0.29,0.072,-21.301,12.207,7.751
0.951,-0.428,0.077,-30.579,1.16,11.536
1.027,-0.476,0.098,-37.903,-5.798,14.648
1.043,-0.391,0.186,-34.729,-7.996,16.907
1.031,-0.328,0.219,-31.189,-1.587,11.719
0.981,-0.303,0.166,-26.855,8.85,3.662
0.948,-0.294,0.072,-22.4,16.479,-1.099
0.973,-0.341,-0.017,-23.01,16.602,-1.404
0.991,-0.359,-0.057,-26.978,10.315,2.991
1.025,-0.331,-0.07,-28.076,3.906,7.996
1.05,-0.317,-0.05,-26.184,2.258,8.362
0.997,-0.271,-0.031,-21.729,3.418,7.629
0.967,-0.228,-0.04,-18.311,4.333,5.066
0.929,-0.192,-0.059,-15.808,3.479,1.648
0.927,-0.178,-0.08,-14.954,2.075,-2.258
0.935,-0.168,-0.1,-13.733,2.625,-5.005
0.97,-0.172,-0.136,-12.817,4.333,-8.301
1.018,-0.22,-0.177,-12.573,6.47,-11.108
1.079,-0.291,-0.212,-12.573,5.554,-10.559
1.081,-0.299,-0.195,-12.268,0.671,-5.432
1.063,-0.22,-0.169,-11.292,-2.258,-0.305
1.046,-0.174,-0.132,-8.789,-1.892,0.183
1.014,-0.13,-0.129,-6.165,0.793,-1.526
0.974,-0.116,-0.117,-4.089,2.625,-2.686
0.942,-0.103,-0.116,-2.502,4.639,-3.723
0.929,-0.119,-0.137,-1.343,5.981,-4.639
0.932,-0.166,-0.153,-0.916,5.066,-5.249
0.951,-0.183,-0.159,-2.075,1.587,-3.296
0.967,-0.205,-0.131,-4.578,-1.343,-1.465
0.963,-0.187,-0.105,-4.395,-1.16,-0.977
0.956,-0.142,-0.084,-2.808,1.343,-1.892
0.955,-0.129,-0.077,-2.502,3.235,-3.662
0.965,-0.151,-0.075,-3.601,4.578,-4.578
0.99,-0.175,-0.094,-5.737,6.287,-4.456
0.996,-0.183,-0.123,-6.226,8.118,-4.456
0.989,-0.186,-0.123,-5.31,8.118,-4.089
0.959,-0.144,-0.115,-5.005,6.897,-2.869
0.967,-0.146,-0.127,-5.31,6.226,-2.747
0.968,-0.18,-0.137,-4.456,6.47,-4.822
0.979,-0.192,-0.159,-2.075,6.714,-7.019
0.996,-0.214,-0.154,-0.366,5.615,-7.446
1.002,-0.227,-0.138,-0.061,3.479,-5.554
0.999,-0.212,-0.136,0.854,2.747,-3.784
0.984,-0.193,-0.141,2.136,2.319,-2.93
0.962,-0.188,-0.136,3.174,1.221,-2.258
0.956,-0.166,-0.111,2.441,-1.16,-0.427
0.967,-0.149,-0.075,1.16,-3.479,1.221
0.987,-0.137,-0.046,-0.549,-4.333,1.038
1.011,-0.172,-0.041,-2.502,-2.808,-0.671
1.014,-0.192,-0.051,-2.991,-1.099,-1.282
0.997,-0.172,-0.071,-1.709,0.488,-0.732
0.985,-0.166,-0.067,-0.671,0.977,-0.854
0.988,-0.177,-0.079,-1.282,0.854,-0.427
0.984,-0.175,-0.087,-1.831,0.366,0
0.976,-0.164,-0.095,-1.77,0.916,-0.671
0.966,-0.177,-0.103,-1.404,1.587,-1.465
0.947,-0.172,-0.113,-1.404,1.221,-1.16
0.934,-0.17,-0.119,-1.587,-0.305,-1.099
0.937,-0.191,-0.12,-1.648,-1.953,-1.038
0.957,-0.2,-0.121,-1.831,-2.991,-0.488
0.971,-0.193,-0.114,-1.648,-3.723,-0.305
0.988,-0.187,-0.115,-1.648,-2.502,-1.099
0.995,-0.191,-0.135,-0.549,-0.244,-2.319
0.989,-0.197,-0.146,0.549,1.465,-2.747
0.974,-0.188,-0.141,1.099,1.77,-2.625
0.965,-0.168,-0.129,1.648,2.38,-2.686
0.953,-0.166,-0.119,1.343,4.456,-3.723
0.948,-0.191,-0.137,0.977,6.531,-4.517
0.938,-0.22,-0.164,-0.122,6.042,-3.479
0.924,-0.218,-0.169,-1.343,2.441,-0.854
0.935,-0.206,-0.14,-1.953,-2.075,1.282
0.948,-0.191,-0.111,-1.648,-3.906,1.16
0.944,-0.177,-0.1,0.061,-2.625,-0.61
0.944,-0.173,-0.103,1.16,-0.977,-1.587
0.946,-0.177,-0.101,1.038,-0.366,-1.526
0.939,-0.178,-0.094,0.732,-0.793,-1.282
0.951,-0.175,-0.083,0.732,-0.916,-1.709
0.963,-0.166,-0.07,0.488,-0.488,-1.953
0.97,-0.17,-0.077,-0.122,0.977,-2.441
0.97,-0.186,-0.086,-0.366,1.343,-2.441
0.962,-0.179,-0.096,-0.488,1.099,-1.77
0.967,-0.175,-0.098,-1.099,0.549,-1.892
0.976,-0.182,-0.105,-1.282,1.099,-2.625
0.991,-0.202,-0.111,-1.892,1.404,-2.869
0.998,-0.224,-0.119,-1.648,1.465,-2.747
1.011,-0.245,-0.131,-0.732,0.61,-2.441
1.009,-0.231,-0.135,0.549,-0.244,-1.221
1.014,-0.218,-0.124,1.709,-0.488,-0.549
1.001,-0.207,-0.1,1.16,-0.244,-0.793
0.973,-0.179,-0.105,0.916,0.854,-0.671
0.946,-0.161,-0.099,0.671,1.465,-1.709
0.943,-0.173,-0.098,-0.244,1.465,-2.563
0.943,-0.184,-0.103,-0.854,1.709,-2.563
0.95,-0.198,-0.118,-0.916,1.648,-2.93
0.957,-0.21,-0.132,-0.793,0.916,-3.235
0.96,-0.206,-0.139,-0.671,-0.366,-2.258
0.96,-0.198,-0.128,-1.526,-2.38,-0.977
0.962,-0.189,-0.109,-1.648,-4.456,0
0.965,-0.181,-0.088,-0.854,-5.188,0
,,,,,
1.118,-0.729,0.896,-95.276,-43.274,21.912
1.437,-0.725,0.788,-93.933,-36.804,-3.052
1.424,-0.864,0.698,-80.017,-25.879,-45.166
1.251,-0.884,0.49,-71.533,-25.696,-70.374
0.828,-0.832,0.349,-61.523,-28.809,-68.359
0.555,-0.683,0.301,-55.054,-27.222,-49.438
0.463,-0.504,0.314,-51.575,-22.766,-24.963
0.497,-0.29,0.352,-44.128,-19.348,-0.916
0.542,-0.072,0.293,-39.795,-16.113,11.902
0.632,0.111,0.347,-42.969,-18.738,12.512
0.745,0.047,0.409,-43.091,-21.545,2.625
0.86,-0.178,0.44,-43.884,-19.897,-7.69
0.956,-0.443,0.513,-48.157,-14.587,-12.268
0.999,-0.65,0.549,-51.575,-15.442,-13.977
1.022,-0.806,0.566,-47.791,-17.151,-15.259
1.001,-0.892,0.53,-30.64,-8.24,-13.977
0.928,-0.918,0.482,-9.399,5.981,-8.301
0.803,-0.818,0.309,2.563,9.644,0.549
0.7,-0.506,0.255,1.465,0.183,6.836
0.66,-0.303,0.208,1.526,-10.132,5.249
0.627,-0.226,0.115,2.258,-17.09,3.357
0.636,-0.215,0.129,-6.287,-22.4,3.418
0.65,-0.343,0.205,-20.569,-28.809,1.099
0.687,-0.575,0.297,-25.208,-32.227,-1.465
0.731,-0.77,0.355,-22.461,-31.128,2.075
0.803,-0.823,0.323,-14.221,-33.203,13.672
0.82,-0.715,0.28,-1.953,-39.795,24.963
0.858,-0.572,0.266,14.221,-40.894,28.931
0.921,-0.493,0.205,23.743,-36.499,30.029
0.997,-0.456,0.21,21.545,-32.654,27.466
1.035,-0.533,0.224,14.343,-30.396,20.02
1.073,-0.615,0.176,8.667,-30.823,16.968
1.105,-0.542,0.118,5.737,-30.212,22.888
1.077,-0.384,0.062,5.554,-26.001,27.527
1.004,-0.269,0.066,7.446,-21.484,21.24
0.945,-0.26,0.036,14.954,-19.47,8.118
0.817,-0.314,0.029,20.386,-18.616,-3.235
0.875,-0.416,0.064,18.372,-20.264,-1.587
0.955,-0.423,0.13,13.794,-27.1,11.78
1.053,-0.448,0.158,12.634,-22.156,13.245
1.169,-0.342,0.189,17.456,-24.475,13.855
1.217,-0.303,0.2,25.513,-22.095,-1.038
1.206,-0.274,0.221,34.912,-16.907,-12.207
1.224,-0.21,0.194,41.382,-9.094,-13
1.213,-0.13,0.157,44.556,-1.099,-11.23
1.193,-0.137,0.124,48.828,4.517,-12.085
0.955,-0.117,0.223,53.345,-1.465,-15.32
1.116,-0.193,0.004,56.519,6.165,-21.667
1.079,-0.271,-0.028,71.594,29.602,-20.752
1.033,-0.359,-0.016,82.52,20.508,-10.681
1.082,-0.407,-0.043,85.266,22.461,4.822
1.191,-0.362,-0.13,90.332,26.001,15.869
1.196,-0.327,-0.223,93.262,17.822,14.526
1.181,-0.351,-0.257,92.285,7.568,9.827
1.141,-0.393,-0.253,94.299,2.38,6.897
1.132,-0.402,-0.23,101.013,-2.075,10.01
1.148,-0.357,-0.2,107.727,-8.179,18.982
1.164,-0.276,-0.125,110.901,-17.334,27.222
1.185,-0.185,-0.049,111.694,-28.931,29.175
1.103,-0.113,0.044,113.892,-38.208,26.184
1.023,-0.154,0.081,120.911,-43.945,26.184
1.031,-0.14,0.097,126.099,-49.377,34.058
1.051,-0.096,0.129,121.948,-54.565,46.875
1.053,-0.103,0.18,116.089,-55.786,58.167
1.022,-0.159,0.216,114.929,-52.429,65.063
1.001,-0.252,0.206,116.577,-46.143,69.641
0.961,-0.299,0.252,116.882,-41.321,73.853
0.862,-0.322,0.333,117.188,-39.917,75.989
0.829,-0.29,0.348,119.69,-43.701,76.782
0.827,-0.24,0.409,118.835,-49.683,73.853
0.765,-0.228,0.387,123.108,-50.476,71.228
0.719,-0.196,0.362,126.892,-47.852,71.411
0.719,-0.165,0.327,129.761,-43.274,72.754
0.677,-0.105,0.263,135.193,-39.49,73.059
0.666,0,0.184,138.733,-35.828,69.885
0.56,0.011,0.169,142.883,-35.461,58.472
0.458,-0.013,0.172,149.17,-40.1,48.035
0.402,-0.074,0.178,151.123,-47.852,47.607
0.449,-0.042,0.227,150.269,-54.871,55.908
0.577,0.031,0.265,145.935,-59.57,69.031
0.714,0.095,0.297,142.944,-60.547,81.299
0.824,0.11,0.304,143.982,-54.993,87.524
0.89,0.036,0.291,147.583,-46.57,85.876
0.898,-0.062,0.293,148.743,-39.001,78.308
0.969,-0.134,0.276,145.386,-31.067,67.383
0.894,-0.175,0.336,146.057,-27.893,55.725
0.797,-0.179,0.425,147.949,-20.813,45.959
0.77,-0.13,0.48,147.644,-14.587,45.105
0.79,-0.038,0.538,143.311,-15.503,49.805
0.826,0.099,0.574,137.695,-14.954,53.162
0.885,0.176,0.481,137.878,-8.057,49.5
0.862,0.25,0.384,138.428,0.977,40.161
0.781,0.245,0.286,136.23,11.23,30.701
0.674,0.136,0.234,133.667,23.071,23.987
0.677,0.089,0.262,125.549,26.794,26.611
0.661,-0.007,0.476,124.451,23.437,28.259
0.767,-0.096,0.635,132.019,23.926,30.212
0.876,-0.068,0.883,130.127,24.719,44.8
1.011,0.158,1.119,122.131,19.043,60.242
1.155,0.313,1.117,144.775,27.954,73.181
1.306,0.508,1.035,155.212,46.387,85.449
1.284,0.66,0.866,154.968,68.604,89.355
1.23,0.711,0.54,153.503,98.999,86.731
1.079,0.574,0.19,141.479,117.554,65.43
0.992,0.184,-0.047,115.295,115.54,28.687
0.834,-0.088,0.012,80.627,100.83,6.042
0.832,-0.206,0.258,49.133,71.533,10.681
1.017,-0.116,0.491,41.26,46.265,36.987
1.188,0.102,0.662,49.377,32.471,63.965
1.377,0.278,0.604,55.481,30.884,74.89
1.454,0.353,0.629,22.949,31.25,72.449
1.469,0.185,0.818,5.432,44.678,58.716
1.317,0.085,0.547,33.386,70.251,50.903
1.217,0.13,0.356,47.18,85.815,64.941
1.078,0.161,0.26,36.438,78.186,74.219
1.014,0.141,0.278,27.893,60.425,76.233
1.054,0.103,0.366,17.395,41.931,78.796
1.122,0.163,0.396,6.348,28.442,80.811
1.146,0.225,0.485,-5.737,19.714,73.547
,,,,,
1.15,-1.381,-0.176,-95.703,-14.771,-29.297
1.2,-1.287,-0.207,-75.256,-15.991,-17.273
1.246,-1.186,-0.187,-59.448,-10.803,-10.193
1.19,-1.142,-0.131,-49.683,-3.723,-7.263
1.052,-1.042,-0.154,-37.537,4.578,-4.517
0.898,-0.887,-0.185,-23.376,11.169,0.366
0.793,-0.728,-0.186,-13.245,11.536,5.188
0.713,-0.584,-0.156,-6.897,9.094,8.484
0.635,-0.454,-0.125,-0.61,7.629,10.01
0.578,-0.32,-0.129,5.493,6.714,9.644
0.555,-0.204,-0.142,12.329,5.432,8.728
0.588,-0.135,-0.136,16.174,3.418,5.31
0.638,-0.109,-0.098,14.648,1.526,0.061
0.715,-0.117,-0.041,6.592,-0.488,-2.502
0.799,-0.13,-0.001,2.136,-1.648,-2.075
0.896,-0.118,0.025,3.418,-0.854,-1.587
0.968,-0.076,0.034,5.859,1.831,-1.709
1.01,-0.055,0.031,5.676,4.517,-3.357
1.005,-0.06,0.025,6.714,9.338,-7.751
1.03,-0.071,0.021,8.606,11.658,-11.963
1.082,-0.101,0.037,7.935,10.437,-13.916
1.161,-0.111,0.075,5.005,9.827,-12.39
1.224,-0.113,0.068,4.272,12.634,-10.01
1.247,-0.133,0.029,4.15,17.273,-9.46
1.217,-0.123,-0.015,5.554,22.339,-8.484
1.155,-0.061,-0.041,8.667,25.879,-5.676
1.097,-0.066,-0.045,18.372,27.405,-2.441
1.063,-0.085,-0.219,38.94,27.1,1.892
1.083,-0.026,-0.165,35.645,20.569,10.193
1.103,-0.076,-0.087,10.986,10.559,11.719
1.086,-0.062,-0.056,3.906,8.057,13.367
1.091,-0.057,-0.073,4.333,9.033,15.076
1.109,-0.093,-0.069,3.967,7.69,15.32
1.105,-0.075,-0.053,2.441,5.005,14.16
1.064,-0.009,-0.065,2.014,4.639,13.916
1.045,0.035,-0.074,3.296,5.371,13.55
1.039,0.021,-0.066,2.808,4.822,11.719
1.027,-0.005,-0.052,0.61,3.357,10.681
1.031,-0.014,-0.038,-1.221,2.258,12.207
1.044,-0.02,-0.017,-2.869,3.418,12.39
0.997,-0.002,-0.018,-3.662,5.432,7.263
0.969,0.001,-0.052,-1.648,8.423,2.502
0.966,-0.019,-0.055,-0.549,8.911,-0.122
0.987,-0.046,-0.036,-1.16,7.202,-1.099
0.978,-0.095,-0.063,0.732,6.592,-1.282
0.95,-0.106,-0.077,0.854,5.859,0.061
0.961,-0.107,-0.064,-0.427,3.906,2.93
0.993,-0.13,-0.049,0.305,3.662,5.92
0.987,-0.145,-0.046,1.221,3.296,8.85
0.964,-0.13,-0.051,1.16,3.357,11.78
0.958,-0.123,-0.059,2.258,2.808,15.503
1.005,-0.123,-0.078,5.615,0.244,20.63
0.994,-0.126,-0.012,5.798,-4.883,25.696
1.015,-0.054,-0.022,1.709,-3.662,23.926
1,-0.023,-0.007,0.305,0.183,13.733
0.985,-0.032,-0.007,4.211,2.625,6.165
0.961,-0.047,-0.008,7.446,3.906,2.93
0.948,-0.044,-0.02,7.996,4.639,1.465
0.939,-0.021,-0.012,6.287,4.211,-1.526
0.938,-0.01,-0.02,7.263,4.944,-5.554
0.933,-0.011,-0.03,8.667,6.653,-8.545
0.929,-0.03,-0.055,7.507,7.629,-8.606
0.928,-0.041,-0.072,4.089,5.798,-5.92
0.933,-0.031,-0.07,-0.549,2.686,-2.869
0.941,-0.031,-0.057,-4.15,-0.305,-1.221
0.971,-0.049,-0.045,-6.653,-1.831,-0.244
0.971,-0.061,-0.034,-8.545,-1.709,-1.282
0.979,-0.079,-0.039,-7.141,-1.77,-2.93
0.995,-0.09,-0.035,-3.662,-1.343,-2.991
1,-0.107,-0.029,-1.038,0.061,-2.075
1,-0.1,-0.035,0.488,0.977,-1.465
0.989,-0.076,-0.042,2.319,1.709,-2.686
0.989,-0.063,-0.045,4.944,2.869,-4.333
0.991,-0.075,-0.039,6.348,4.15,-4.822
0.995,-0.083,-0.037,5.432,4.517,-2.869
0.999,-0.049,-0.029,2.808,4.517,0.854
0.995,-0.016,-0.017,-0.183,4.456,2.014
0.999,-0.013,-0.013,-1.648,5.798,0.061
1.007,-0.028,-0.015,-2.502,8.362,-2.014
1.004,-0.04,-0.026,-2.563,11.047,-3.235
0.997,-0.063,-0.032,-1.77,12.39,-3.967
0.976,-0.081,-0.063,0.427,13,-4.7
0.961,-0.071,-0.082,2.258,11.902,-5.066
0.957,-0.078,-0.095,3.845,9.766,-4.822
0.963,-0.082,-0.093,4.639,7.202,-3.906
0.966,-0.076,-0.083,4.089,4.761,-3.174
0.977,-0.076,-0.066,3.479,2.319,-2.258
0.987,-0.069,-0.056,2.869,1.099,-1.282
0.993,-0.059,-0.046,2.197,0.488,-0.916
0.995,-0.059,-0.04,1.526,0.854,-1.892
0.999,-0.056,-0.053,1.77,2.319,-3.357
0.994,-0.078,-0.054,2.563,3.235,-4.456
1,-0.093,-0.062,2.502,3.54,-3.723
1.001,-0.091,-0.072,1.709,4.333,-2.258
1.004,-0.091,-0.078,1.16,4.578,-2.319
1,-0.092,-0.071,0.916,5.005,-3.418
0.988,-0.081,-0.074,1.892,6.165,-4.089
0.974,-0.068,-0.067,3.052,7.324,-4.761
0.973,-0.08,-0.064,4.883,8.057,-5.249
0.959,-0.076,-0.053,6.775,8.362,-5.188
0.949,-0.059,-0.076,8.484,7.812,-4.456
0.97,-0.066,-0.098,8.667,6.165,-4.761
0.974,-0.07,-0.092,6.348,4.089,-5.005
0.975,-0.072,-0.098,4.639,2.625,-4.517
0.975,-0.075,-0.093,3.479,1.465,-3.54
0.98,-0.096,-0.081,2.686,0.366,-2.625
0.994,-0.117,-0.083,2.686,-0.366,-1.953
0.992,-0.115,-0.098,3.723,0.427,-0.916
0.997,-0.101,-0.101,4.517,0.183,0.916
1.002,-0.089,-0.077,3.296,-0.793,2.625
1,-0.081,-0.058,2.136,-1.343,3.601
0.986,-0.084,-0.066,2.869,-0.61,2.625
0.982,-0.095,-0.083,3.357,0.671,1.343
0.975,-0.118,-0.095,3.54,1.526,0.183
0.984,-0.123,-0.099,4.15,1.831,-0.732
0.979,-0.105,-0.088,4.639,1.587,-2.075
0.978,-0.099,-0.073,4.7,0.916,-2.869
0.973,-0.092,-0.056,3.967,0.977,-2.319
0.971,-0.078,-0.042,3.113,1.221,-1.892
,,,,,
1.61,-0.99,0.454,-124.756,-53.65,-36.56
1.801,-1.254,0.149,-107.361,-34.79,-26.978
1.999,-1.279,-0.318,-80.261,-10.437,-10.803
1.794,-1.244,-0.335,-58.838,17.212,1.709
1.422,-1.078,-0.44,-35.034,43.579,7.446
1.049,-0.858,-0.439,-15.32,55.298,14.526
0.763,-0.66,-0.262,3.357,45.715,25.33
0.562,-0.466,-0.075,18.005,24.475,35.095
0.537,-0.244,0.031,30.029,5.371,45.898
0.534,-0.051,0.243,10.437,-13.184,46.448
0.501,-0.032,0.466,-11.902,-23.437,35.278
0.589,-0.05,0.583,-21.484,-22.156,24.17
0.707,-0.081,0.542,-27.1,-12.207,14.526
0.809,-0.181,0.485,-36.011,-0.793,4.15
0.891,-0.335,0.324,-41.016,12.329,-5.127
0.963,-0.448,0.233,-40.344,25.146,-10.193
1.02,-0.509,0.137,-34.424,35.4,-9.399
1.024,-0.53,0.02,-28.87,39.673,-4.211
1.007,-0.53,-0.082,-25.146,37.842,2.686
0.975,-0.544,-0.132,-23.437,33.264,9.094
0.908,-0.522,-0.123,-21.24,28.564,14.099
0.857,-0.51,-0.102,-18.921,25.33,16.541
0.87,-0.494,-0.066,-18.555,21.423,17.273
0.883,-0.443,-0.018,-21.24,16.907,17.578
0.817,-0.338,-0.012,-21.057,18.127,16.724
0.781,-0.261,-0.071,-11.047,22.095,16.052
0.813,-0.181,-0.079,-6.531,18.127,13.123
0.829,-0.242,0.046,-13.855,7.202,6.104
0.877,-0.193,0.087,-17.517,5.615,3.357
0.926,-0.144,0.014,-18.86,14.099,0.488
0.972,-0.213,-0.155,-19.714,29.419,-7.69
1.012,-0.373,-0.381,-15.93,45.532,-16.357
1.046,-0.539,-0.547,-9.521,52.246,-18.494
1.066,-0.628,-0.64,-5.676,43.884,-11.292
1.014,-0.636,-0.63,-5.493,26.062,-0.427
0.929,-0.585,-0.559,-4.761,8.179,5.981
0.863,-0.437,-0.41,-0.366,-5.005,7.202
0.819,-0.258,-0.228,4.272,-15.747,5.554
0.8,-0.001,-0.09,2.38,-23.437,6.348
0.857,0.198,-0.078,-2.625,-23.987,5.127
0.917,0.176,-0.086,-11.108,-20.691,0.549
0.953,-0.006,-0.134,-21.423,-15.747,-3.662
0.982,-0.193,-0.193,-27.222,-11.23,-3.967
1.026,-0.251,-0.267,-29.48,-7.874,-1.404
1.077,-0.335,-0.316,-30.029,-5.005,-1.831
1.087,-0.358,-0.356,-28.992,-2.808,-0.61
1.049,-0.257,-0.392,-26.428,-3.052,4.761
0.988,-0.129,-0.395,-20.691,-6.348,10.925
0.872,-0.012,-0.35,-17.09,-11.902,14.16
0.849,0.114,-0.271,-14.038,-19.958,15.869
0.89,0.184,-0.193,-15.808,-23.926,14.954
0.888,0.159,-0.133,-21.484,-21.423,14.282
0.859,0.102,-0.126,-25.513,-11.658,12.817
0.817,0.063,-0.205,-25.635,1.038,6.104
0.781,0.001,-0.347,-23.193,11.047,-2.686
0.807,-0.093,-0.504,-21.423,13.062,-9.338
0.858,-0.192,-0.596,-20.325,4.944,-10.986
0.911,-0.255,-0.608,-19.226,-10.193,-6.897
0.922,-0.196,-0.54,-15.076,-25.818,1.709
0.888,-0.045,-0.438,-5.188,-35.95,10.132
0.917,0.073,-0.308,6.958,-38.147,13.123
0.961,0.125,-0.237,12.207,-34.546,12.695
1.011,0.094,-0.216,11.78,-29.907,10.071
1.059,0.015,-0.201,10.254,-26.184,6.836
1.099,-0.054,-0.211,10.681,-20.996,6.104
1.252,-0.07,-0.249,12.329,-16.846,7.263
1.021,-0.218,-0.127,13.855,-16.602,5.92
1.181,-0.053,-0.291,15.259,-6.531,10.376
1.109,-0.125,-0.274,22.827,-3.357,5.127
1.128,-0.103,-0.286,23.499,-2.563,6.897
1.085,0.003,-0.279,24.902,-4.211,17.395
1.062,0.046,-0.212,27.771,-7.446,18.555
1.084,0.045,-0.17,29.48,-7.996,19.104
1.078,0.036,-0.144,30.457,-6.836,23.865
1.005,0.124,-0.139,32.532,-5.859,26.245
0.968,0.168,-0.095,36.621,-3.845,21.118
0.961,0.183,-0.081,39.124,-1.77,18.555
0.958,0.162,-0.111,36.194,-1.343,20.081
0.935,0.147,-0.161,34.729,-1.099,19.958
0.94,0.161,-0.201,39.001,0.183,16.541
0.987,0.099,-0.245,44.25,1.526,9.155
1.029,0.032,-0.308,47.852,-1.221,6.47
1.046,0.04,-0.372,47.363,-7.568,8.301
1.07,0.043,-0.413,46.204,-13.916,7.935
1.099,0.004,-0.472,49.683,-17.639,4.272
1.106,-0.047,-0.498,55.664,-21.301,1.77
1.127,-0.076,-0.459,63.538,-27.405,2.686
1.094,-0.053,-0.396,74.951,-30.212,5.066
1.041,-0.019,-0.358,86.731,-27.161,6.592
0.999,-0.006,-0.294,98.511,-23.743,4.15
0.997,0.017,-0.18,111.084,-22.339,1.831
0.996,0.043,0.01,118.164,-25.146,3.052
0.981,0.085,0.219,119.141,-31.555,5.676
1.004,0.078,0.35,116.699,-36.987,8.118
1.06,0.055,0.426,109.436,-39.063,10.925
1.094,0.009,0.414,102.295,-34.912,12.024
1.109,-0.049,0.322,99.609,-22.949,11.658
1.076,-0.092,0.213,101.501,-8.118,12.085
0.986,-0.062,0.116,106.079,6.165,15.015
0.882,-0.037,0.041,109.375,16.724,15.869
0.83,-0.066,-0.001,110.657,18.677,13.123
0.807,-0.097,0.002,110.229,14.16,12.573
0.805,-0.088,0.018,112.122,5.493,11.658
0.824,-0.052,0.059,114.502,-1.343,8.118
0.842,0.015,0.076,115.295,-1.953,6.104
0.821,0.062,0.037,114.38,3.784,6.531
0.765,0.057,-0.035,113.098,13.489,5.005
0.691,0.052,-0.073,114.624,21.545,1.892
0.646,0.059,-0.041,117.92,25.024,-1.404
0.649,0.099,0.02,118.896,22.766,-3.357
0.734,0.145,0.097,115.417,17.883,-3.967
0.73,0.134,0.224,110.718,14.526,-5.981
0.816,0.167,0.265,108.032,18.799,-9.338
0.836,0.211,0.283,108.032,28.931,-10.925
0.853,0.243,0.224,104.98,39.49,-12.817
0.842,0.218,0.129,97.961,44.983,-14.954
0.82,0.206,0.048,91.431,47.363,-17.273
0.835,0.136,-0.011,88.806,46.448,-21.729
0.901,0.088,0.003,87.036,41.748,-24.719
,,,,,
1.508,-0.871,0.392,-116.516,2.991,25.879
1.409,-0.617,0.358,-85.144,17.944,18.677
1.185,-0.356,0.411,-67.322,34.912,7.996
0.895,-0.05,0.458,-56.152,50.049,0.061
0.849,0.025,0.439,-56.458,52.795,-5.981
0.987,-0.345,0.53,-78.857,54.932,-18.188
0.878,-0.585,0.539,-111.389,68.604,-21.179
0.94,-0.548,0.46,-134.277,79.529,-13.916
1.002,-0.695,0.282,-140.808,86.487,-13.062
0.901,-0.847,-0.164,-138.977,90.759,-16.541
0.818,-0.892,-0.397,-126.526,76.538,-13.367
0.991,-0.96,-0.41,-103.394,44.739,-5.615
1.087,-0.922,-0.468,-86.243,23.865,-0.793
1.042,-0.851,-0.499,-75.439,17.212,2.197
1.115,-0.906,-0.514,-63.477,16.968,1.16
1.177,-1.046,-0.542,-54.565,23.804,-3.235
1.165,-1.044,-0.625,-44.128,33.02,-0.427
1.103,-0.926,-0.717,-30.151,33.264,7.629
0.929,-0.714,-0.703,-18.066,23.743,14.893
0.789,-0.502,-0.59,-4.822,11.841,22.278
0.731,-0.346,-0.497,5.554,0.732,26.733
0.728,-0.271,-0.371,6.042,-7.629,26.062
0.683,-0.244,-0.285,1.526,-12.512,22.461
0.682,-0.247,-0.245,-0.488,-12.085,19.104
0.636,-0.2,-0.238,1.16,-8.545,17.334
0.578,-0.102,-0.252,4.822,-6.775,14.526
0.574,-0.035,-0.233,6.592,-7.69,7.568
0.614,-0.025,-0.224,6.592,-7.568,-1.831
0.668,-0.028,-0.22,6.775,-6.958,-9.46
0.751,-0.103,-0.175,5.859,-9.155,-14.343
0.848,-0.141,-0.142,4.822,-11.475,-15.137
0.913,-0.144,-0.112,4.578,-12.207,-13.55
0.961,-0.136,-0.09,5.371,-9.827,-13.55
0.995,-0.128,-0.087,6.104,-4.761,-14.954
1.031,-0.13,-0.07,7.141,-0.916,-15.259
1.092,-0.112,-0.062,6.348,1.099,-14.16
1.111,-0.094,-0.07,3.601,5.066,-13.672
1.122,-0.093,-0.092,1.221,11.169,-15.198
1.135,-0.104,-0.129,1.648,16.907,-16.296
1.159,-0.14,-0.168,1.648,20.02,-15.564
1.163,-0.171,-0.197,0.732,19.531,-12.39
1.154,-0.184,-0.221,0.549,15.32,-7.446
1.137,-0.167,-0.222,1.587,10.986,-3.845
1.094,-0.14,-0.209,4.089,8.911,-1.343
1.082,-0.114,-0.208,6.775,9.583,-0.305
1.017,-0.073,-0.195,8.911,8.972,0
1.005,-0.059,-0.188,8.362,6.104,0.427
1.008,-0.101,-0.167,4.028,4.272,-0.061
1.051,-0.134,-0.144,2.502,2.38,0.305
1.055,-0.139,-0.124,4.578,0.732,2.319
1.035,-0.128,-0.098,6.653,-1.16,3.906
1.023,-0.115,-0.089,8.423,-1.16,3.052
1.01,-0.106,-0.078,10.559,-0.061,0.732
1.018,-0.104,-0.07,11.108,1.282,-0.183
1.01,-0.107,-0.066,10.315,1.343,-0.244
1.013,-0.105,-0.062,8.667,0.977,0.793
1.02,-0.096,-0.058,5.676,-0.366,3.174
1.008,-0.059,-0.064,1.404,-1.343,6.226
1,-0.06,-0.064,-1.831,-1.404,7.385
1.012,-0.084,-0.068,-3.784,-0.732,6.653
1.014,-0.093,-0.089,-4.15,0.488,6.104
1.02,-0.108,-0.116,-3.723,1.892,6.348
1.04,-0.147,-0.143,-3.662,2.197,5.798
1.054,-0.182,-0.161,-2.747,1.587,5.92
1.054,-0.177,-0.163,-1.038,0.488,7.935
1.038,-0.167,-0.163,1.282,-0.061,10.071
0.994,-0.15,-0.163,4.089,0,11.841
0.948,-0.109,-0.174,5.92,-0.183,12.756
0.924,-0.092,-0.167,6.47,-1.709,11.414
0.899,-0.084,-0.149,5.737,-2.38,9.094
0.894,-0.073,-0.136,5.798,-3.296,7.751
0.904,-0.076,-0.128,6.165,-4.456,6.592
0.911,-0.084,-0.119,5.676,-5.554,6.042
0.916,-0.09,-0.108,4.822,-7.812,6.042
0.922,-0.077,-0.1,3.357,-9.583,6.042
0.929,-0.076,-0.087,2.258,-9.216,4.7
0.945,-0.09,-0.072,1.892,-7.751,3.357
0.958,-0.085,-0.067,2.625,-5.798,3.296
0.968,-0.082,-0.066,3.052,-4.15,3.418
0.971,-0.089,-0.064,2.441,-2.38,3.235
0.966,-0.094,-0.068,1.282,-0.732,2.38
0.947,-0.089,-0.083,0.916,1.831,0.61
0.942,-0.079,-0.096,1.648,4.15,-0.183
0.955,-0.089,-0.1,2.014,4.761,-0.732
0.962,-0.097,-0.106,1.16,4.883,-0.977
0.959,-0.087,-0.106,0.61,4.761,-0.305
0.952,-0.062,-0.109,1.343,5.371,0.305
0.948,-0.063,-0.108,2.258,6.287,-0.671
0.943,-0.065,-0.113,2.136,6.226,-1.892
0.946,-0.06,-0.126,1.709,6.104,-2.075
0.947,-0.064,-0.132,1.038,5.554,-2.075
0.944,-0.069,-0.139,0.549,4.822,-2.197
0.952,-0.085,-0.148,1.038,4.15,-2.441
0.967,-0.101,-0.15,0.793,3.723,-2.808
0.984,-0.126,-0.155,0.366,3.296,-3.357
0.987,-0.134,-0.162,0.854,3.418,-3.235
0.982,-0.119,-0.174,2.075,3.296,-2.319
0.977,-0.107,-0.18,3.296,2.197,-1.465
0.979,-0.109,-0.173,3.357,0.122,-1.526
0.975,-0.1,-0.167,2.869,-1.465,-1.709
0.973,-0.08,-0.165,2.93,-2.441,-1.282
0.972,-0.068,-0.152,3.479,-3.052,-1.099
0.992,-0.08,-0.133,3.784,-3.174,-1.282
1.008,-0.086,-0.127,2.747,-2.991,-1.526
1.014,-0.089,-0.133,1.953,-1.77,-1.221
1.007,-0.076,-0.149,2.441,0.427,-0.732
1,-0.072,-0.159,4.089,1.953,-0.732
0.998,-0.075,-0.161,4.517,0.916,-0.549
1.005,-0.091,-0.156,2.747,-1.221,-0.366
1.007,-0.098,-0.15,1.343,-2.991,0.671
1.012,-0.094,-0.146,1.709,-3.54,1.526
1.007,-0.098,-0.143,2.808,-3.296,1.648
1.007,-0.106,-0.141,3.174,-3.418,1.77
1.006,-0.107,-0.133,2.869,-4.395,2.258
1.002,-0.102,-0.129,2.38,-5.188,2.808
1.001,-0.098,-0.126,1.953,-5.737,3.113
1.005,-0.102,-0.117,1.892,-5.737,3.601
1.002,-0.088,-0.114,1.282,-5.249,3.54
0.994,-0.097,-0.122,0.549,-4.15,4.028
,,,,,
1.398,-1.366,-0.35,-110.229,-13.245,-44.556
1.747,-1.632,-0.477,-104.187,-6.775,-42.236
1.988,-1.871,-0.572,-85.266,15.564,-45.715
2,-1.854,-0.651,-54.626,36.682,-33.936
1.808,-1.549,-0.758,-16.418,46.265,-8.057
1.571,-1.239,-0.756,10.132,46.936,16.052
1.343,-0.957,-0.692,26.123,45.837,33.142
1.048,-0.63,-0.555,39.001,42.847,45.776
0.823,-0.313,-0.401,49.866,33.447,54.138
0.625,-0.059,-0.191,54.199,19.226,56.641
0.464,0.13,0.021,49.988,7.69,55.176
0.459,0.208,0.126,40.161,3.235,47.18
0.514,0.186,0.182,28.381,3.601,31.555
0.595,0.149,0.172,17.395,5.859,15.808
0.668,0.116,0.073,9.338,8.301,3.906
0.739,0.055,-0.036,3.662,7.446,-3.967
0.815,-0.032,-0.116,-1.648,2.136,-9.583
0.896,-0.107,-0.19,-6.531,-4.15,-12.878
0.963,-0.187,-0.24,-10.193,-9.766,-13.184
1.034,-0.265,-0.235,-11.719,-14.893,-11.475
1.072,-0.267,-0.184,-10.132,-18.066,-8.24
1.058,-0.166,-0.141,-4.211,-17.639,-4.578
1.05,-0.088,-0.118,2.625,-13.977,-3.906
1.041,-0.059,-0.102,5.31,-7.385,-5.554
1.044,-0.057,-0.105,5.005,-1.831,-7.385
1.064,-0.062,-0.107,3.906,0.122,-7.446
1.087,-0.074,-0.112,2.502,0.854,-6.836
1.093,-0.084,-0.113,1.282,3.113,-5.798
1.078,-0.082,-0.121,0.793,6.714,-4.395
1.065,-0.07,-0.164,0.061,10.437,-2.991
1.031,-0.071,-0.196,-1.16,11.719,-1.831
1.026,-0.077,-0.214,-0.977,9.949,-0.732
1.041,-0.092,-0.223,-1.343,8.179,-0.366
1.045,-0.108,-0.241,-1.099,7.08,0.793
1.033,-0.125,-0.243,-0.977,5.615,1.77
1.01,-0.121,-0.237,0.793,3.113,2.747
0.991,-0.1,-0.224,3.357,1.526,3.113
0.98,-0.089,-0.213,5.737,1.587,1.709
0.992,-0.105,-0.205,7.202,1.587,0.061
1.014,-0.126,-0.197,6.348,0.122,-0.549
1.016,-0.117,-0.182,5.615,-2.014,0.366
1.027,-0.112,-0.157,5.188,-3.662,0.793
1.038,-0.105,-0.131,4.211,-3.235,1.038
1.045,-0.105,-0.119,3.845,-2.014,1.404
1.036,-0.104,-0.108,3.662,-1.038,1.221
1.018,-0.091,-0.095,4.211,0.122,1.648
1.001,-0.061,-0.081,4.883,0.732,2.747
0.99,-0.055,-0.076,4.028,0.61,3.052
0.985,-0.058,-0.077,2.625,0.61,3.113
0.972,-0.049,-0.086,1.648,1.404,2.808
0.96,-0.046,-0.1,1.038,2.441,1.404
0.965,-0.066,-0.113,-0.061,2.136,0.061
0.967,-0.087,-0.119,-1.648,-0.244,-0.305
0.975,-0.101,-0.123,-1.831,-2.319,0.244
0.984,-0.095,-0.128,-0.488,-2.869,0.122
0.992,-0.097,-0.134,1.404,-1.953,-1.221
0.991,-0.111,-0.135,2.258,-0.732,-2.258
0.997,-0.124,-0.125,2.563,-0.488,-1.77
1.005,-0.111,-0.128,3.418,-0.061,-0.488
0.999,-0.103,-0.125,3.418,1.587,0.122
0.983,-0.096,-0.126,3.845,3.723,0.061
0.966,-0.073,-0.123,4.639,5.127,0.916
0.956,-0.063,-0.105,4.761,5.249,1.282
0.959,-0.059,-0.092,3.967,5.188,1.282
0.958,-0.06,-0.097,2.808,6.775,-0.061
0.945,-0.053,-0.111,2.014,9.033,-2.075
0.945,-0.057,-0.131,1.892,9.521,-3.113
0.969,-0.09,-0.154,-0.305,7.874,-3.174
0.976,-0.106,-0.182,-3.357,5.615,-1.526
0.975,-0.115,-0.197,-4.089,2.502,0.183
0.973,-0.118,-0.195,-3.113,0.732,0.366
0.957,-0.104,-0.183,-1.465,1.16,-0.122
0.95,-0.091,-0.167,0.732,1.831,-0.366
0.953,-0.095,-0.153,1.648,1.038,-0.183
0.968,-0.113,-0.145,0.671,-0.061,0
0.967,-0.105,-0.142,0.183,-0.793,1.16
0.968,-0.09,-0.132,1.16,-0.122,1.465
0.963,-0.08,-0.123,1.587,2.197,0.366
0.954,-0.069,-0.119,2.136,4.272,-0.061
0.954,-0.071,-0.12,1.77,4.822,-0.183
0.969,-0.086,-0.138,0.732,4.395,0.305
0.988,-0.101,-0.157,-0.854,3.052,1.221
0.988,-0.102,-0.166,-2.197,2.258,1.343
0.986,-0.097,-0.175,-1.587,2.808,0.793
0.979,-0.093,-0.186,-0.366,3.54,0.488
0.969,-0.098,-0.186,0.244,2.258,0.671
0.977,-0.102,-0.18,0.488,0.305,1.16
0.985,-0.102,-0.183,1.465,-0.671,2.136
0.989,-0.097,-0.172,2.625,-0.549,1.587
0.989,-0.09,-0.166,4.333,0.671,0.488
0.991,-0.089,-0.156,4.883,1.343,0.061
0.981,-0.082,-0.146,4.272,0.549,0.305
0.977,-0.076,-0.14,3.174,0,0.488
0.971,-0.079,-0.142,2.502,0.488,0.244
0.968,-0.08,-0.149,2.93,2.014,-0.793
0.97,-0.081,-0.154,3.784,2.93,-1.953
0.98,-0.092,-0.158,3.54,2.563,-2.93
0.967,-0.096,-0.155,2.747,0.977,-2.869
0.96,-0.076,-0.143,2.93,-1.282,-1.892
0.973,-0.07,-0.119,2.747,-2.686,-2.136
0.978,-0.073,-0.108,2.075,-3.113,-2.319
0.979,-0.082,-0.11,1.526,-2.38,-2.258
0.994,-0.103,-0.123,1.038,-0.793,-2.869
1.001,-0.106,-0.128,1.221,0.977,-2.991
0.994,-0.104,-0.129,2.014,2.991,-2.441
0.98,-0.1,-0.138,2.686,4.517,-2.075
0.964,-0.093,-0.158,1.953,4.456,-1.343
0.954,-0.093,-0.167,1.038,2.014,-0.732
0.954,-0.093,-0.162,-0.366,-1.221,-0.549
0.959,-0.091,-0.153,-1.038,-3.296,0.061
0.972,-0.099,-0.144,-1.038,-3.723,-0.122
0.974,-0.103,-0.145,-0.427,-2.258,-1.038
0.977,-0.104,-0.139,0.916,0.183,-2.258
0.982,-0.104,-0.146,2.258,3.235,-2.991
0.989,-0.117,-0.151,2.869,5.005,-3.113
0.998,-0.114,-0.145,2.075,4.211,-2.319
1.005,-0.114,-0.144,-0.061,2.075,-1.282
1,-0.113,-0.139,-1.587,0.916,-0.061
0.986,-0.098,-0.141,-1.953,0.916,1.343
,,,,,
1.446,-1.544,-0.557,-131.958,87.891,-82.153
1.544,-1.72,-0.856,-137.146,67.688,-70.618
1.424,-1.625,-1.065,-122.437,49.133,-49.072
1.399,-1.489,-1.195,-90.881,37.354,-30.701
1.458,-1.518,-1.219,-64.758,26.55,-17.334
1.415,-1.434,-1.217,-50.293,18.555,-1.282
1.258,-1.247,-1.125,-32.471,14.465,14.16
1.123,-1.054,-0.977,-8.85,11.841,25.452
0.922,-0.753,-0.819,12.573,10.254,35.522
0.766,-0.492,-0.669,29.053,7.019,39.49
0.669,-0.316,-0.477,37.842,0.305,37.17
0.562,-0.115,-0.259,41.321,-7.019,35.522
0.51,0.054,-0.072,44.128,-12.085,31.311
0.504,0.137,0.067,43.945,-14.343,21.973
0.531,0.138,0.148,35.4,-13.794,11.719
0.612,0.058,0.176,21.545,-11.536,2.38
0.692,-0.008,0.192,7.996,-9.644,-2.625
0.747,-0.028,0.189,-0.122,-7.69,-5.31
0.804,-0.055,0.166,-2.808,-4.333,-7.202
0.835,-0.091,0.111,-6.348,-0.488,-9.094
0.862,-0.133,0.019,-10.376,3.479,-11.78
0.886,-0.175,-0.081,-11.902,7.019,-14.404
0.918,-0.22,-0.185,-11.292,8.667,-15.32
0.97,-0.273,-0.263,-10.925,7.141,-15.076
1.038,-0.316,-0.308,-10.864,3.113,-13.184
1.077,-0.307,-0.313,-10.01,-1.709,-8.545
1.103,-0.268,-0.279,-7.446,-5.737,-4.822
1.122,-0.23,-0.231,-4.578,-7.507,-2.747
1.142,-0.206,-0.208,-2.625,-5.981,-0.977
1.16,-0.197,-0.208,-2.991,-2.686,0.122
1.147,-0.194,-0.193,-2.747,0.427,0.916
1.117,-0.154,-0.172,-0.793,3.723,1.892
1.104,-0.124,-0.161,1.77,6.165,2.502
1.099,-0.13,-0.161,1.404,7.263,2.808
1.091,-0.134,-0.17,0.732,7.935,3.235
1.087,-0.143,-0.169,2.136,8.484,3.113
1.081,-0.147,-0.162,4.761,9.155,2.93
1.057,-0.137,-0.152,6.042,8.789,4.089
1.044,-0.133,-0.136,5.31,6.653,5.005
1.033,-0.136,-0.12,4.578,4.639,4.7
1.026,-0.141,-0.103,5.371,3.723,4.089
1.023,-0.142,-0.08,6.592,3.174,3.54
1.019,-0.121,-0.077,7.019,3.296,3.723
1.015,-0.112,-0.076,6.592,2.808,3.845
1.024,-0.132,-0.072,4.883,1.77,3.174
1.039,-0.143,-0.064,2.747,1.221,3.174
1.059,-0.139,-0.063,1.038,1.343,4.456
1.061,-0.138,-0.071,-0.61,3.662,5.127
1.058,-0.143,-0.085,-0.916,7.141,4.883
1.059,-0.156,-0.115,-0.061,9.888,4.883
1.055,-0.166,-0.152,0.244,10.803,5.798
1.036,-0.147,-0.169,0.732,9.705,7.324
1.015,-0.119,-0.167,2.014,7.629,8.606
1.004,-0.108,-0.155,2.625,5.493,9.094
0.993,-0.101,-0.148,2.38,3.54,9.583
0.966,-0.092,-0.135,2.136,2.075,9.521
0.943,-0.069,-0.126,3.296,1.465,8.606
0.935,-0.06,-0.115,4.822,0.732,7.385
0.932,-0.071,-0.108,4.15,-1.038,7.202
0.94,-0.09,-0.107,0.977,-3.113,7.751
0.938,-0.106,-0.106,-1.953,-5.493,8.118
0.93,-0.111,-0.097,-2.441,-6.287,7.996
0.925,-0.102,-0.099,-1.831,-4.517,7.385
0.93,-0.108,-0.102,-1.465,-2.014,5.798
0.93,-0.111,-0.103,-1.282,-0.61,4.639
0.923,-0.115,-0.105,-1.526,0.061,4.15
0.922,-0.115,-0.105,-1.953,0.366,3.235
0.915,-0.106,-0.106,-2.319,1.16,2.38
0.914,-0.102,-0.113,-2.93,2.502,1.587
0.918,-0.108,-0.125,-3.601,4.15,0.61
0.921,-0.12,-0.144,-3.906,5.066,-0.061
0.917,-0.125,-0.156,-4.395,4.639,-0.977
0.906,-0.127,-0.166,-3.418,4.272,-1.953
0.928,-0.139,-0.177,-2.319,2.869,-2.441
0.944,-0.15,-0.193,-2.502,0.183,-1.892
0.959,-0.154,-0.197,-3.296,-2.258,-0.61
0.968,-0.154,-0.188,-2.747,-3.784,0.793
0.967,-0.145,-0.169,-1.465,-4.15,1.831
0.956,-0.125,-0.144,-0.549,-3.784,2.136
0.954,-0.108,-0.128,0.366,-2.747,1.709
0.957,-0.106,-0.121,1.221,-1.16,0.671
0.963,-0.105,-0.116,1.038,0.671,-0.732
0.963,-0.088,-0.113,0.854,2.747,-1.343
0.967,-0.084,-0.111,1.221,3.967,-1.709
0.97,-0.099,-0.113,0.61,4.395,-2.563
0.973,-0.106,-0.131,-0.244,4.517,-3.296
0.984,-0.111,-0.142,0.244,4.211,-3.052
1,-0.12,-0.149,0.122,3.235,-2.625
1.011,-0.129,-0.147,-0.488,2.319,-2.502
1.016,-0.13,-0.145,-0.305,1.892,-1.892
1.009,-0.107,-0.138,-0.366,1.892,-1.099
1.013,-0.103,-0.133,0.061,2.319,-1.038
1.019,-0.11,-0.132,0.916,2.686,-2.075
1.024,-0.114,-0.139,0.671,2.441,-1.831
1.021,-0.122,-0.14,0,1.099,-1.16
1.024,-0.113,-0.148,-0.488,0.61,0.244
1.019,-0.107,-0.157,-0.305,0.854,1.343
1.017,-0.119,-0.164,-0.549,0.549,0.61
1.014,-0.119,-0.167,-0.244,-0.427,0.854
1.019,-0.118,-0.158,-0.244,-1.343,1.831
1.013,-0.112,-0.154,-0.732,-0.977,2.197
1.006,-0.115,-0.154,-0.244,1.343,0.732
1.005,-0.114,-0.155,1.404,3.662,-0.366
0.99,-0.112,-0.158,2.441,4.7,-0.793
0.992,-0.114,-0.16,1.953,4.822,-0.061
0.988,-0.117,-0.166,1.892,3.784,0.183
0.982,-0.12,-0.169,2.38,3.235,-0.488
0.98,-0.116,-0.174,3.174,4.15,-1.587
0.976,-0.123,-0.169,4.456,4.517,-1.465
0.976,-0.126,-0.163,4.333,3.784,-0.122
0.96,-0.123,-0.15,3.174,1.77,2.319
0.95,-0.115,-0.145,1.892,0.488,3.723
0.947,-0.099,-0.136,2.014,0.671,2.563
0.941,-0.094,-0.13,2.258,1.526,1.16
0.943,-0.103,-0.134,1.526,1.526,0.793
0.939,-0.11,-0.142,0.854,0.244,1.038
0.948,-0.118,-0.149,0.305,-0.916,1.648
0.961,-0.129,-0.151,-0.427,-1.343,1.526
0.954,-0.124,-0.15,-0.427,-0.854,1.526
,,,,,
0.911,-1.157,-1.242,-119.995,-23.865,-81.238
1.123,-1.287,-1.276,-122.192,-53.101,-76.782
1.327,-1.253,-1.221,-106.201,-73.242,-66.04
1.436,-1.131,-1.126,-82.825,-78.491,-52.795
1.539,-1.052,-1.064,-58.594,-73.486,-38.635
1.685,-1.078,-1.04,-42.786,-59.814,-22.217
1.696,-1,-1.015,-33.02,-46.875,-3.174
1.637,-0.843,-0.943,-20.508,-37.842,12.695
1.513,-0.667,-0.806,-4.15,-28.198,23.437
1.271,-0.42,-0.668,14.954,-12.634,31.982
1.003,-0.129,-0.566,33.691,3.662,36.255
0.843,0.056,-0.48,48.157,13.123,32.227
0.779,0.112,-0.366,51.27,11.78,23.682
0.776,0.142,-0.252,43.213,5.615,15.991
0.761,0.158,-0.191,33.142,1.648,9.644
0.772,0.12,-0.14,26.184,-1.404,1.709
0.8,0.087,-0.113,22.644,-3.662,-4.333
0.851,0.024,-0.09,20.081,-5.92,-8.972
0.916,-0.036,-0.062,17.151,-9.827,-12.451
0.974,-0.075,-0.032,14.465,-13.855,-13.611
1.023,-0.119,0.001,12.695,-15.259,-13.611
1.066,-0.148,0.024,12.39,-12.695,-12.817
1.103,-0.169,0.036,12.878,-8.667,-12.39
1.11,-0.178,0.034,13.062,-4.822,-12.329
1.122,-0.184,0.032,12.268,-2.075,-10.315
1.135,-0.165,0.04,10.437,-0.671,-6.714
1.122,-0.143,0.05,8.667,0.732,-4.639
1.095,-0.134,0.045,7.507,3.601,-4.395
1.075,-0.142,0.016,6.348,5.981,-4.333
1.074,-0.156,-0.013,6.592,5.615,-3.479
1.084,-0.15,-0.026,7.629,3.174,-2.319
1.086,-0.148,-0.02,7.568,0.732,-1.465
1.079,-0.16,-0.009,6.775,-1.221,-0.488
1.07,-0.183,0.009,5.493,-2.441,0.916
1.063,-0.169,0.025,5.615,-2.319,3.418
1.057,-0.158,0.036,6.836,-0.732,3.418
1.056,-0.179,0.031,7.446,1.892,1.465
1.05,-0.186,0.02,6.165,3.845,1.343
1.033,-0.173,0.014,4.089,3.784,2.38
1.029,-0.187,0.01,2.197,2.869,3.296
1.022,-0.183,-0.008,0.854,1.16,4.639
1.024,-0.162,-0.018,0.305,0.305,4.883
1.031,-0.17,-0.026,0.061,0.977,3.723
1.049,-0.193,-0.029,-0.732,1.831,3.357
1.032,-0.183,-0.024,-1.465,1.77,5.798
1,-0.142,-0.023,0,3.967,7.69
0.979,-0.114,-0.012,4.333,7.446,6.714
0.941,-0.081,-0.004,7.507,9.521,5.249
0.908,-0.062,-0.005,7.08,9.033,3.906
0.909,-0.07,-0.017,4.883,6.653,1.953
0.912,-0.073,-0.033,2.686,3.723,0.488
0.927,-0.076,-0.048,1.282,1.831,-0.854
0.936,-0.08,-0.05,0.488,0.732,-1.587
0.93,-0.082,-0.046,-0.854,0.122,-1.831
0.929,-0.084,-0.048,-2.38,-0.488,-2.747
0.947,-0.108,-0.054,-3.357,-0.61,-3.418
0.958,-0.122,-0.067,-4.028,-0.671,-2.869
0.969,-0.14,-0.088,-3.54,-0.183,-3.174
0.973,-0.149,-0.109,-1.526,1.465,-4.15
0.969,-0.149,-0.118,0.671,2.686,-4.333
0.961,-0.135,-0.117,1.587,2.38,-3.845
0.964,-0.132,-0.114,1.709,1.648,-3.296
0.968,-0.139,-0.112,1.099,0.305,-2.93
0.977,-0.145,-0.108,0.366,-0.793,-2.808
0.989,-0.141,-0.094,-0.732,-1.953,-2.197
0.992,-0.137,-0.083,-2.93,-2.686,-1.526
0.991,-0.148,-0.088,-4.456,-2.441,-1.648
0.998,-0.168,-0.109,-4.395,-1.343,-2.441
0.998,-0.179,-0.118,-1.709,-0.61,-2.502
1,-0.165,-0.12,0.793,-0.183,-1.77
1.001,-0.165,-0.12,2.136,-0.366,-1.831
1.01,-0.169,-0.125,2.258,-0.977,-1.831
1.026,-0.18,-0.118,2.258,-1.831,-1.343
1.019,-0.177,-0.096,3.052,-2.747,-0.244
1.009,-0.157,-0.068,4.7,-3.418,0.427
1.01,-0.146,-0.033,6.104,-3.357,0.732
1.002,-0.133,-0.013,5.859,-2.93,1.16
0.986,-0.126,0.001,5.127,-2.258,0.366
0.989,-0.134,0.009,5.066,-2.014,-0.305
0.994,-0.132,0.01,3.784,-2.136,0.122
0.997,-0.142,0.004,2.075,-3.357,0.671
1.006,-0.156,-0.013,0.671,-4.15,0.671
1.013,-0.165,-0.026,0.488,-4.395,0.854
1.016,-0.16,-0.025,1.038,-4.456,1.587
1.022,-0.158,-0.015,0.916,-3.906,2.563
1.017,-0.16,-0.022,0,-2.625,3.723
1.003,-0.157,-0.036,0.122,-1.953,4.211
0.994,-0.148,-0.046,1.221,-1.282,3.967
0.984,-0.133,-0.05,2.197,-0.916,3.662
0.982,-0.14,-0.058,1.831,-1.648,2.625
0.987,-0.146,-0.064,1.099,-2.441,1.465
0.988,-0.142,-0.067,1.038,-2.93,1.16
0.99,-0.144,-0.064,1.526,-3.54,1.526
0.992,-0.149,-0.062,0.732,-4.028,1.77
0.996,-0.157,-0.065,-0.305,-3.784,1.831
0.997,-0.167,-0.064,0.305,-2.563,1.892
0.998,-0.165,-0.066,1.526,-1.343,2.197
1.001,-0.165,-0.066,1.831,-0.977,3.113
0.984,-0.162,-0.077,1.526,-1.526,4.517
0.967,-0.143,-0.078,3.113,-1.16,4.578
0.957,-0.129,-0.062,5.92,-0.427,3.845
0.949,-0.128,-0.056,6.714,-0.183,3.418
0.942,-0.12,-0.045,5.493,-0.916,3.845
0.943,-0.119,-0.032,4.517,-1.953,3.845
0.948,-0.123,-0.03,3.906,-2.197,3.174
0.953,-0.13,-0.03,4.272,-1.221,2.014
0.967,-0.146,-0.03,3.967,0.061,1.16
0.964,-0.131,-0.035,3.601,2.38,0.427
0.958,-0.122,-0.03,4.761,3.967,-0.244
0.962,-0.128,-0.027,5.066,3.723,-0.854
0.966,-0.136,-0.035,3.113,2.258,-0.183
0.958,-0.141,-0.045,1.282,0.061,1.099
0.949,-0.136,-0.044,2.136,-2.075,1.282
0.957,-0.133,-0.03,2.93,-3.601,0.549
0.96,-0.128,-0.026,2.319,-4.578,0.732
0.945,-0.115,-0.019,1.343,-4.883,1.343
0.945,-0.111,-0.014,1.16,-5.554,1.038
0.96,-0.124,-0.017,0.671,-5.554,-0.122
0.97,-0.132,-0.026,0.183,-5.31,-0.61
,,,,,
1.134,-1.323,-1.014,-134.888,35.583,-97.595
1.302,-1.487,-1.243,-126.892,12.939,-81.421
1.436,-1.442,-1.43,-113.77,-6.042,-55.054
1.503,-1.35,-1.493,-98.328,-15.869,-35.278
1.427,-1.189,-1.374,-70.679,-17.517,-18.433
1.277,-0.922,-1.159,-35.522,-9.277,-3.662
1.039,-0.593,-0.924,-6.531,4.883,7.507
0.813,-0.325,-0.752,14.893,19.775,14.771
0.696,-0.159,-0.645,25.635,24.963,17.456
0.646,-0.076,-0.534,24.292,18.25,16.357
0.602,0.008,-0.37,15.808,5.676,14.343
0.634,0.081,-0.248,6.592,-4.211,11.841
0.703,0.092,-0.155,1.465,-8.362,7.751
0.741,0.106,-0.084,-0.244,-7.507,3.601
0.768,0.105,-0.058,-3.723,-4.517,-0.671
0.814,0.056,-0.046,-8.362,-1.526,-4.883
0.874,0.015,-0.052,-13.123,1.526,-7.568
0.925,-0.024,-0.083,-15.686,4.639,-9.705
0.997,-0.086,-0.162,-15.686,6.958,-11.597
1.058,-0.168,-0.227,-14.648,6.714,-12.939
1.107,-0.226,-0.258,-11.78,6.592,-12.817
1.124,-0.238,-0.27,-6.165,6.47,-10.803
1.1,-0.198,-0.259,1.221,5.554,-6.531
1.067,-0.143,-0.226,6.958,4.272,-3.296
1.05,-0.12,-0.184,10.62,1.16,-3.296
1.056,-0.091,-0.121,12.085,-2.869,-3.174
1.08,-0.076,-0.058,11.475,-7.202,-3.54
1.11,-0.08,-0.006,9.644,-10.925,-4.456
1.153,-0.089,0.031,7.507,-12.207,-3.906
1.186,-0.1,0.063,5.615,-11.902,-2.136
1.204,-0.094,0.068,5.066,-8.728,-1.038
1.214,-0.102,0.062,5.31,-3.418,-0.122
1.178,-0.099,0.053,6.165,2.258,1.343
1.146,-0.087,0.037,6.836,6.775,3.052
1.141,-0.102,0.018,6.653,9.155,3.662
1.131,-0.113,-0.009,5.615,10.437,5.249
1.107,-0.124,-0.044,4.944,11.292,7.263
1.078,-0.128,-0.062,5.92,10.864,8.606
1.049,-0.109,-0.08,7.874,10.376,9.46
1.024,-0.097,-0.099,8.118,9.46,8.85
1.006,-0.099,-0.115,7.996,7.629,8.423
1.016,-0.113,-0.136,8.24,5.127,8.057
1.028,-0.119,-0.144,8.85,2.136,8.545
1.044,-0.127,-0.144,9.766,-0.854,8.789
1.067,-0.154,-0.142,10.437,-2.869,8.972
1.078,-0.161,-0.129,10.742,-5.737,11.169
1.062,-0.139,-0.099,11.353,-8.057,14.282
1.022,-0.111,-0.04,13.367,-7.568,15.869
0.979,-0.049,0.001,16.235,-3.784,15.381
0.956,-0.02,0.005,18.799,1.099,12.451
0.947,-0.031,-0.012,18.372,3.906,9.644
0.944,-0.033,-0.03,15.442,3.296,9.155
0.95,-0.034,-0.03,12.329,0.549,9.766
0.976,-0.057,-0.041,9.888,-1.343,9.888
1.002,-0.088,-0.069,8.24,-1.282,9.216
1.014,-0.112,-0.094,8.362,-1.282,9.46
1.025,-0.131,-0.113,8.728,-1.099,10.62
0.995,-0.135,-0.11,9.827,0.732,12.451
0.885,-0.059,-0.064,13.855,4.456,14.221
0.82,0.012,-0.03,19.47,9.399,12.207
0.797,0.029,-0.018,22.217,12.024,8.24
0.797,0.019,-0.031,19.775,10.559,5.615
0.815,-0.005,-0.05,15.32,6.897,2.991
0.856,-0.043,-0.059,12.451,2.686,0.549
0.888,-0.053,-0.049,11.475,-0.244,-0.61
0.898,-0.043,-0.039,10.864,-1.16,-1.282
0.919,-0.055,-0.031,10.376,-0.854,-2.258
0.952,-0.082,-0.039,8.789,-1.221,-2.747
0.96,-0.086,-0.037,7.08,-1.16,-2.014
0.951,-0.064,-0.02,7.263,0.488,-1.892
0.93,-0.038,0.007,8.911,2.747,-2.686
0.909,-0.014,0.034,9.216,3.967,-3.723
0.919,-0.021,0.042,6.47,3.113,-4.7
0.934,-0.037,0.039,3.235,0.916,-4.7
0.973,-0.067,0.025,1.465,-0.305,-5.066
1.024,-0.096,0.001,-0.61,0,-5.188
1.053,-0.11,-0.023,-2.258,1.77,-4.761
1.063,-0.118,-0.044,-1.526,4.089,-4.456
1.064,-0.104,-0.048,0.366,5.798,-3.845
1.059,-0.094,-0.039,2.502,6.348,-2.747
1.04,-0.063,-0.021,3.601,6.47,-2.197
1.023,-0.047,-0.018,4.15,7.141,-2.38
1.02,-0.056,-0.026,4.517,7.812,-3.662
1.027,-0.068,-0.039,4.761,7.324,-4.639
1.039,-0.072,-0.042,4.517,4.944,-4.7
1.058,-0.073,-0.04,3.235,1.404,-3.784
1.085,-0.083,-0.045,1.526,-0.366,-3.052
1.09,-0.08,-0.05,1.343,-0.244,-2.38
1.079,-0.071,-0.054,2.258,0.183,-1.77
1.078,-0.079,-0.061,2.258,-0.183,-1.526
1.077,-0.089,-0.064,0.916,-1.465,-0.549
1.067,-0.088,-0.058,0.427,-2.441,1.404
1.05,-0.072,-0.05,1.648,-1.221,2.563
1.034,-0.061,-0.062,3.174,1.526,2.319
1.015,-0.07,-0.086,3.906,3.418,2.747
1.006,-0.074,-0.103,3.235,3.357,3.235
1.003,-0.082,-0.114,2.441,1.831,3.296
0.988,-0.076,-0.121,2.686,0.671,3.052
0.976,-0.072,-0.121,3.906,0.61,2.014
0.949,-0.059,-0.102,5.127,-0.305,1.648
0.935,-0.052,-0.076,5.737,-1.221,1.16
0.939,-0.059,-0.063,5.31,-1.099,-0.244
0.943,-0.071,-0.071,4.578,-0.671,-1.099
0.948,-0.075,-0.072,4.089,-0.793,-1.343
0.959,-0.093,-0.077,3.479,-1.526,-1.16
0.967,-0.101,-0.08,2.686,-1.953,-0.671
0.966,-0.097,-0.081,3.052,-1.648,-0.305
0.968,-0.095,-0.075,3.967,-1.221,-0.122
0.965,-0.1,-0.067,4.15,-1.16,0.183
0.96,-0.101,-0.065,4.028,-1.099,0.671
0.959,-0.104,-0.06,4.517,-0.549,1.221
0.946,-0.093,-0.057,5.371,0.061,1.77
0.938,-0.082,-0.058,6.165,0.549,1.221
0.931,-0.078,-0.042,5.676,0.061,0.305
0.919,-0.052,-0.024,4.761,-0.488,0.488
0.925,-0.054,-0.011,3.479,-0.671,-0.244
0.938,-0.066,-0.012,2.625,0,-1.587
0.96,-0.08,-0.032,2.502,0.549,-2.625
0.98,-0.098,-0.04,2.686,0.732,-3.052
,,,,,
1.046,-1.667,-0.65,-185.547,20.569,-95.032
1.192,-1.685,-0.857,-185.242,4.7,-77.393
1.325,-1.693,-1.005,-168.579,5.249,-67.017
1.349,-1.575,-1.106,-140.381,17.822,-55.969
1.29,-1.425,-1.25,-105.164,32.532,-44.25
1.23,-1.314,-1.317,-78.735,37.292,-33.813
1.115,-1.111,-1.315,-61.279,31.616,-21.912
0.976,-0.83,-1.25,-42.603,22.278,-8.667
0.91,-0.623,-1.132,-24.231,12.268,-1.892
0.905,-0.493,-1.03,-12.817,3.296,2.197
0.893,-0.391,-0.925,-6.897,-3.662,6.531
0.876,-0.294,-0.776,-2.869,-10.376,7.812
0.901,-0.211,-0.635,2.686,-16.357,7.812
0.937,-0.148,-0.496,5.554,-20.569,7.202
0.959,-0.107,-0.379,4.028,-20.874,6.287
0.965,-0.072,-0.312,1.892,-16.235,4.395
0.963,-0.062,-0.29,1.526,-9.033,1.709
0.979,-0.078,-0.29,3.174,-3.113,-2.441
1.003,-0.12,-0.287,4.028,-1.16,-4.944
1.026,-0.146,-0.268,3.906,-2.563,-4.395
1.047,-0.166,-0.226,3.418,-5.859,-2.808
1.073,-0.181,-0.18,3.723,-7.996,-1.709
1.066,-0.148,-0.134,5.554,-6.104,-0.427
1.059,-0.131,-0.106,9.827,-1.648,-0.671
1.071,-0.151,-0.091,13.489,1.343,-1.953
1.082,-0.153,-0.069,13.855,0.916,-1.404
1.094,-0.144,-0.035,11.719,-1.404,0.549
1.119,-0.146,0.01,10.071,-2.258,1.648
1.139,-0.152,0.044,9.277,-1.282,1.892
1.135,-0.144,0.067,8.789,1.465,2.38
1.115,-0.119,0.069,8.179,4.7,3.235
1.103,-0.132,0.044,7.996,7.324,3.235
1.088,-0.151,0.013,7.996,8.301,2.991
1.076,-0.16,-0.009,9.338,7.874,3.357
1.082,-0.171,-0.005,11.047,6.165,4.15
1.085,-0.185,0,11.658,5.249,5.737
1.082,-0.194,0.005,11.292,5.31,7.446
1.078,-0.193,0.004,12.207,5.92,8.24
1.057,-0.177,0.002,12.878,6.714,8.24
1.049,-0.169,0.01,12.39,5.981,8.728
1.048,-0.174,0.025,10.925,3.235,9.521
1.052,-0.188,0.043,9.216,0.061,10.681
1.04,-0.172,0.067,8.24,-1.526,11.719
1.022,-0.148,0.08,8.911,-0.427,11.292
1.01,-0.146,0.098,9.888,0.916,9.705
1,-0.137,0.119,8.484,0.732,9.216
0.97,-0.113,0.143,6.042,-0.427,9.583
0.951,-0.099,0.15,4.272,-1.648,9.094
0.943,-0.095,0.149,3.235,-2.197,7.019
0.94,-0.095,0.148,2.869,-2.136,4.578
0.953,-0.11,0.138,1.343,-2.136,2.991
0.962,-0.12,0.119,-1.099,-1.892,2.136
0.968,-0.129,0.096,-2.808,-1.831,2.197
0.974,-0.145,0.075,-4.089,-2.136,2.869
0.983,-0.16,0.048,-4.578,-2.075,2.93
0.985,-0.164,0.029,-4.578,-1.404,2.38
0.991,-0.161,0.003,-4.272,-0.427,2.319
0.993,-0.168,-0.014,-3.784,-0.244,2.808
0.989,-0.161,-0.034,-3.601,0.061,3.601
0.983,-0.15,-0.048,-2.747,0.977,3.967
0.972,-0.145,-0.056,-1.587,2.869,3.601
0.96,-0.132,-0.068,-0.549,4.456,3.357
0.956,-0.132,-0.078,-0.366,4.761,3.235
0.952,-0.131,-0.089,-0.916,3.662,3.113
0.948,-0.135,-0.097,-1.404,2.197,2.869
0.941,-0.144,-0.102,-1.16,1.16,2.38
0.938,-0.155,-0.111,-0.244,0.427,1.892
0.94,-0.158,-0.118,1.404,-0.122,1.648
0.945,-0.158,-0.112,2.625,-0.916,1.892
0.943,-0.153,-0.102,2.502,-1.465,2.808
0.939,-0.145,-0.092,2.258,-1.77,3.906
0.923,-0.135,-0.077,2.502,-1.465,3.784
0.917,-0.131,-0.064,4.089,-0.427,1.892
0.916,-0.128,-0.057,6.165,0,0.549
0.912,-0.12,-0.05,6.409,-0.488,-0.061
0.922,-0.131,-0.036,5.981,-1.953,-0.366
0.929,-0.128,-0.014,5.188,-3.723,0.122
0.937,-0.133,0.001,4.7,-3.662,-0.183
0.947,-0.133,0.011,4.639,-2.808,-0.488
0.942,-0.132,0.021,4.211,-2.563,-0.977
0.947,-0.135,0.025,4.089,-2.197,-1.709
0.964,-0.141,0.028,4.028,-1.953,-1.892
0.975,-0.139,0.028,3.113,-1.526,-1.831
0.975,-0.139,0.026,2.136,-0.366,-2.075
0.982,-0.142,0.018,2.014,0.854,-2.441
0.982,-0.136,0.013,2.136,1.404,-2.502
0.966,-0.123,0.014,2.441,2.014,-2.441
0.967,-0.124,0.008,3.174,1.648,-3.357
0.98,-0.137,0,3.113,0.183,-4.333
1.001,-0.156,0.002,1.526,-1.831,-4.395
1.019,-0.165,0.008,0.793,-3.662,-3.235
1.03,-0.169,0.013,0.916,-5.432,-1.892
1.037,-0.174,0.024,1.282,-6.104,-1.465
1.041,-0.17,0.03,1.77,-5.432,-1.587
1.044,-0.163,0.031,2.563,-4.089,-1.465
1.037,-0.16,0.035,2.686,-2.747,-1.038
1.029,-0.155,0.03,2.136,-1.648,-0.854
1.025,-0.156,0.026,1.953,-0.732,-0.854
1.021,-0.155,0.023,1.892,0.671,-0.488
1.018,-0.158,0.011,1.77,1.648,0.305
1.012,-0.164,-0.001,1.099,1.709,0.732
1.001,-0.158,-0.012,1.404,1.892,0.793
0.986,-0.147,-0.007,2.502,1.587,0.977
0.973,-0.13,0.005,3.113,0.61,1.16
0.965,-0.121,0.009,2.441,0.061,1.404
0.961,-0.13,0.009,0.793,-0.671,1.221
0.96,-0.134,0.011,-0.732,-1.709,1.587
0.968,-0.138,0.01,-1.648,-2.319,2.075
0.969,-0.143,0.004,-2.441,-2.258,1.587
0.963,-0.148,0.002,-2.136,-1.953,0.61
0.964,-0.149,0.003,-1.587,-1.892,0.244
0.976,-0.163,0.012,-1.648,-2.136,0.793
0.972,-0.165,0.016,-2.075,-1.953,1.587
0.966,-0.16,0.022,-1.221,-1.038,1.16
0.97,-0.163,0.02,0.122,0.488,0.305
0.975,-0.174,0.015,-0.183,1.099,0.427
0.963,-0.176,0.002,-1.16,0.977,1.038
0.956,-0.177,0.001,-1.099,0.916,0.061
0.958,-0.179,0.002,-0.366,0.977,-0.854
,,,,,
1.406,-1.989,-1.07,-211.548,-26.367,-94.177
1.724,-2.278,-1.376,-183.35,-16.663,-86.914
1.852,-2.293,-1.581,-139.893,-0.488,-69.946
1.783,-2.036,-1.678,-86.365,13.062,-47.18
1.559,-1.62,-1.662,-32.471,16.968,-21.667
1.273,-1.17,-1.49,5.31,9.521,0.732
1.02,-0.752,-1.277,23.254,-3.906,17.639
0.83,-0.437,-1.046,28.87,-18.433,27.893
0.66,-0.188,-0.797,28.931,-28.87,31.738
0.562,0,-0.569,30.945,-32.837,29.907
0.533,0.092,-0.369,31.616,-32.41,22.766
0.562,0.124,-0.223,28.931,-30.396,12.878
0.629,0.096,-0.13,22.827,-28.259,5.249
0.706,0.066,-0.097,15.32,-27.161,1.221
0.776,0.022,-0.085,7.629,-26.489,-1.282
0.848,-0.026,-0.056,2.014,-25.818,-4.089
0.948,-0.095,-0.02,-0.427,-24.414,-6.104
1.036,-0.154,0.012,-1.526,-21.362,-5.676
1.09,-0.191,0.036,-2.075,-16.663,-4.578
1.114,-0.217,0.056,-2.136,-9.888,-4.7
1.138,-0.221,0.057,-0.854,-2.319,-3.906
1.144,-0.222,0.036,1.404,5.066,-3.052
1.155,-0.237,0.012,2.075,10.132,-3.174
1.152,-0.238,-0.006,2.502,12.451,-1.77
1.146,-0.229,-0.018,4.089,13.306,0.793
1.153,-0.223,-0.029,5.798,13.672,3.296
1.158,-0.21,-0.039,7.446,14.16,5.615
1.147,-0.189,-0.041,9.033,15.625,7.019
1.117,-0.153,-0.036,10.742,17.029,7.69
1.098,-0.136,-0.026,12.39,16.846,8.606
1.066,-0.109,-0.014,11.963,15.137,9.949
1.035,-0.087,-0.006,10.376,13,10.498
1.024,-0.08,-0.001,8.728,10.559,9.521
1.03,-0.096,0.005,6.836,7.874,8.911
1.037,-0.113,0.006,4.578,5.676,9.338
1.045,-0.142,-0.008,2.319,4.7,9.521
1.05,-0.158,-0.007,2.075,3.967,8.972
1.048,-0.154,0.002,3.662,3.418,9.338
1.048,-0.161,0.018,5.188,3.113,9.949
1.035,-0.168,0.021,5.249,2.136,10.376
1.007,-0.14,0.026,5.31,0.793,11.414
0.987,-0.107,0.052,6.287,0.183,10.986
0.969,-0.088,0.072,7.019,0.977,9.399
0.956,-0.091,0.075,6.226,2.686,7.69
0.947,-0.099,0.062,4.578,4.211,6.287
0.95,-0.118,0.036,2.747,4.517,4.883
0.956,-0.135,0.013,1.77,3.601,4.028
0.958,-0.145,-0.004,0.854,1.404,4.395
0.95,-0.136,-0.009,0.854,-1.282,4.822
0.945,-0.116,-0.007,1.465,-3.662,5.188
0.937,-0.099,-0.001,1.465,-5.798,5.31
0.937,-0.102,0.006,0.305,-7.874,4.333
0.939,-0.111,0.017,-1.221,-8.667,3.296
0.952,-0.116,0.02,-2.197,-8.118,3.235
0.954,-0.11,0.015,-2.014,-5.92,2.991
0.955,-0.107,0.007,-1.282,-3.906,2.319
0.958,-0.12,-0.01,-1.465,-3.296,1.648
0.949,-0.139,-0.016,-1.831,-3.418,1.953
0.94,-0.119,-0.019,-0.916,-3.784,3.052
0.941,-0.1,-0.019,0.305,-3.845,3.418
0.942,-0.105,-0.023,0.488,-3.418,2.747
0.944,-0.121,-0.032,-0.244,-2.869,2.197
0.962,-0.137,-0.036,-1.221,-2.38,1.831
0.964,-0.132,-0.042,-1.648,-1.282,1.831
0.957,-0.115,-0.048,-0.977,0.854,1.709
0.952,-0.119,-0.051,0.244,2.258,1.16
0.95,-0.13,-0.06,-0.244,2.502,0.854
0.932,-0.128,-0.062,-0.793,2.747,0.366
0.928,-0.115,-0.062,0.793,3.357,-0.793
0.946,-0.123,-0.06,3.235,3.601,-2.014
0.954,-0.139,-0.064,3.601,2.93,-2.441
0.954,-0.142,-0.061,2.991,1.404,-2.502
0.962,-0.142,-0.042,2.991,0.061,-2.747
0.964,-0.132,-0.033,3.357,-0.061,-3.174
0.966,-0.125,-0.027,4.089,0.122,-3.479
0.969,-0.135,-0.019,3.235,-0.183,-3.845
0.964,-0.137,-0.012,1.892,-0.854,-3.723
0.963,-0.132,-0.006,1.587,-1.526,-3.296
0.96,-0.121,0,2.441,-1.77,-2.808
0.964,-0.113,0.013,3.723,-1.343,-2.502
0.976,-0.117,0.012,3.723,-0.916,-2.136
0.983,-0.124,0.001,2.93,-0.427,-1.77
0.99,-0.127,-0.006,2.991,-0.183,-1.709
0.997,-0.133,-0.011,3.54,-0.549,-1.709
1.002,-0.128,-0.005,3.052,-1.221,-1.343
1.002,-0.118,-0.001,2.258,-1.465,-0.854
1.01,-0.125,-0.001,2.686,-1.099,-1.404
1.02,-0.136,-0.008,2.869,-0.122,-1.892
1.011,-0.136,-0.007,2.258,0.183,-1.648
1.004,-0.119,-0.003,2.319,-0.183,-1.404
1.005,-0.115,0.002,2.93,-0.244,-1.526
1.006,-0.119,0.001,2.502,-0.244,-1.526
1.012,-0.136,-0.004,1.648,0,-1.465
1.008,-0.132,-0.005,1.77,0.732,-0.61
0.997,-0.109,-0.004,2.747,1.343,0.427
0.994,-0.107,-0.001,3.052,1.404,0.488
0.988,-0.114,-0.005,1.892,1.099,0.122
0.982,-0.122,-0.011,1.16,0.854,0
0.984,-0.127,-0.015,1.404,0.427,-0.244
0.993,-0.119,-0.014,1.587,-0.061,-0.549
0.997,-0.139,-0.014,1.465,0.305,-0.427
0.99,-0.139,-0.015,1.099,1.465,-0.183
0.979,-0.13,-0.02,1.831,2.38,-0.122
0.965,-0.12,-0.018,2.686,3.052,-0.122
0.955,-0.117,-0.018,2.075,2.625,-0.366
0.951,-0.128,-0.016,1.221,1.77,-0.854
0.948,-0.121,-0.014,1.16,0.793,-0.854
0.943,-0.113,-0.004,1.831,-0.061,-0.916
0.953,-0.121,0.007,1.831,-1.099,-1.221
0.965,-0.127,0.006,0.488,-1.404,-1.221
0.976,-0.144,-0.003,-0.244,-0.854,-1.16
0.99,-0.161,-0.016,-0.061,0.305,-1.587
0.993,-0.165,-0.022,1.099,1.648,-1.953
0.99,-0.157,-0.023,2.686,2.991,-1.953
0.983,-0.154,-0.024,3.54,3.662,-1.587
0.978,-0.163,-0.028,3.54,3.296,-1.282
0.968,-0.15,-0.026,3.845,3.174,-1.343
0.967,-0.147,-0.016,5.005,3.906,-1.77
0.949,-0.131,-0.004,5.981,4.822,-2.258
,,,,,
1.031,-1.537,-0.418,-130.371,4.272,-47.546
1.128,-1.636,-0.542,-122.864,2.991,-35.4
1.166,-1.64,-0.645,-105.286,6.287,-26.489
1.155,-1.547,-0.723,-80.627,10.193,-19.836
1.115,-1.406,-0.789,-55.359,11.23,-13.672
1.052,-1.263,-0.789,-37.354,8.423,-6.531
0.984,-1.09,-0.754,-26.306,0.732,1.587
0.949,-0.941,-0.687,-15.808,-8.728,9.888
0.893,-0.764,-0.581,-4.333,-14.038,16.541
0.839,-0.573,-0.494,6.836,-12.878,19.348
0.811,-0.442,-0.423,14.893,-9.155,17.456
0.8,-0.36,-0.364,16.785,-6.409,13.672
0.8,-0.308,-0.314,14.954,-6.836,11.719
0.82,-0.288,-0.274,11.719,-9.46,10.559
0.872,-0.292,-0.241,9.521,-12.634,9.399
0.897,-0.318,-0.185,8.545,-15.259,7.874
0.947,-0.337,-0.154,8.911,-13.55,6.287
0.974,-0.363,-0.109,10.742,-10.071,4.089
1.009,-0.381,-0.091,12.146,-5.981,3.113
1.006,-0.404,-0.077,12.451,-2.502,3.357
1.007,-0.405,-0.063,12.878,-0.305,3.906
1,-0.388,-0.058,14.282,1.16,4.822
0.995,-0.38,-0.047,15.442,1.343,5.737
0.99,-0.376,-0.027,14.832,0.488,6.226
0.985,-0.365,-0.005,13.916,-0.61,6.653
0.989,-0.355,0.018,13.367,-1.648,6.409
1.004,-0.367,0.038,12.695,-1.831,5.371
1.008,-0.373,0.044,12.817,-0.793,5.554
1.001,-0.373,0.044,13.306,0.732,6.47
1.001,-0.369,0.054,13.733,1.831,7.324
1.001,-0.356,0.054,14.587,2.502,7.935
1.004,-0.349,0.058,15.381,2.93,7.874
1.005,-0.357,0.058,14.648,3.601,7.996
0.983,-0.355,0.057,12.939,3.601,9.155
0.947,-0.319,0.054,12.329,2.991,11.23
0.922,-0.277,0.08,12.146,0.671,12.695
0.93,-0.268,0.116,10.437,-0.916,12.39
0.919,-0.281,0.119,8.057,-0.244,10.193
0.928,-0.296,0.107,6.104,1.465,7.812
0.907,-0.313,0.105,4.456,1.465,6.714
0.91,-0.325,0.105,2.747,0.366,7.141
0.908,-0.331,0.104,1.221,-0.244,7.263
0.911,-0.333,0.09,1.038,0.305,6.47
0.915,-0.347,0.085,2.197,0.916,5.066
0.912,-0.361,0.086,3.113,0.122,4.456
0.922,-0.375,0.089,2.258,-0.732,4.944
0.913,-0.376,0.08,0.671,-1.282,6.104
0.917,-0.374,0.063,-0.244,-1.099,6.104
0.924,-0.362,0.054,0.305,0.366,4.211
0.933,-0.357,0.045,2.686,3.296,1.892
0.928,-0.361,0.027,4.883,6.226,0.488
0.922,-0.362,0.006,5.066,6.592,0.244
0.92,-0.356,0,4.822,4.639,1.038
0.927,-0.354,0.002,4.517,1.831,2.197
0.932,-0.356,0.003,3.601,-0.244,2.869
0.933,-0.358,0.001,2.991,-1.099,3.174
0.936,-0.351,-0.009,2.93,-1.282,3.54
0.939,-0.349,-0.021,3.174,-1.16,4.272
0.935,-0.352,-0.029,3.479,-1.465,5.066
0.924,-0.351,-0.028,3.479,-2.563,5.432
0.914,-0.34,-0.022,3.601,-4.272,5.127
0.931,-0.343,-0.031,4.639,-5.92,4.456
0.946,-0.345,-0.026,5.31,-7.019,3.723
0.948,-0.341,-0.009,5.615,-7.751,4.028
0.947,-0.341,-0.003,5.737,-8.118,4.456
0.943,-0.336,0.007,5.371,-8.484,5.066
0.938,-0.32,0.023,5.188,-8.423,5.127
0.946,-0.32,0.039,5.371,-7.202,3.906
0.951,-0.325,0.051,5.859,-4.822,2.747
0.948,-0.326,0.059,5.859,-2.869,2.319
0.941,-0.327,0.059,5.188,-2.014,2.502
0.933,-0.332,0.065,3.967,-1.831,3.174
0.939,-0.337,0.057,3.296,-1.831,2.991
0.943,-0.344,0.048,4.211,-1.404,1.587
0.943,-0.347,0.047,5.859,-0.305,0.977
0.934,-0.327,0.047,6.287,0.305,0.366
0.938,-0.337,0.035,6.531,1.709,0.854
0.927,-0.327,0.019,6.348,2.38,0.671
0.921,-0.321,0.014,6.47,2.197,0.305
0.922,-0.331,0.012,6.042,1.221,0.061
0.929,-0.349,0.002,5.249,0.793,-0.183
0.932,-0.352,-0.007,5.249,0.122,0.427
0.933,-0.352,-0.01,5.371,-1.221,1.77
0.932,-0.35,-0.004,5.371,-2.502,2.869
0.934,-0.345,-0.004,5.249,-3.418,2.625
0.94,-0.345,-0.003,5.676,-3.662,1.709
0.944,-0.345,0.006,6.226,-4.333,1.465
0.951,-0.34,0.018,6.348,-5.127,1.953
0.958,-0.328,0.026,6.348,-5.31,2.686
0.951,-0.319,0.031,6.165,-4.395,2.93
0.945,-0.312,0.038,6.165,-3.479,2.38
0.932,-0.299,0.046,6.409,-3.418,2.258
0.932,-0.293,0.047,6.226,-3.906,1.404
0.942,-0.306,0.054,5.371,-4.15,0.061
0.948,-0.314,0.059,4.883,-3.967,0
0.95,-0.321,0.063,4.517,-4.089,0.488
0.955,-0.333,0.068,4.028,-4.272,1.099
0.959,-0.333,0.06,4.089,-4.15,0.671
0.96,-0.334,0.057,4.639,-3.235,0.244
0.954,-0.334,0.059,5.005,-2.258,0
0.951,-0.335,0.062,5.127,-2.075,0.366
0.953,-0.327,0.066,4.883,-2.197,1.709
0.942,-0.321,0.058,4.272,-2.258,2.563
0.937,-0.322,0.055,3.662,-2.197,1.526
0.929,-0.319,0.057,3.784,-2.075,1.038
0.921,-0.314,0.063,3.906,-2.075,1.282
0.914,-0.308,0.051,3.601,-2.075,1.099
0.917,-0.322,0.036,3.296,-2.258,-0.305
0.917,-0.321,0.042,3.357,-3.235,-0.732
0.914,-0.316,0.055,3.357,-4.7,-0.549
0.914,-0.308,0.069,3.113,-5.859,-0.244
0.92,-0.307,0.082,2.808,-6.348,-0.183
0.931,-0.317,0.093,2.563,-6.287,0.183
0.933,-0.324,0.093,1.648,-5.676,0.061
0.93,-0.325,0.091,0.61,-4.639,-0.732
0.938,-0.331,0.093,0.061,-3.601,-1.099
0.948,-0.338,0.094,-0.061,-2.502,-0.732
0.947,-0.348,0.086,-0.61,-1.648,0.122
0.942,-0.356,0.072,-0.305,-0.916,0.61
,,,,,
1.117,-1.35,-0.629,-127.563,26.245,-59.875
1.206,-1.409,-0.757,-109.558,30.64,-55.054
1.101,-1.263,-0.851,-90.82,37.354,-44.922
1.033,-1.057,-0.93,-68.237,39.49,-33.691
1.043,-0.993,-0.975,-56.274,31.921,-28.748
1.005,-0.87,-0.984,-56.091,18.555,-20.752
0.954,-0.699,-0.942,-52.734,3.54,-11.536
1.005,-0.628,-0.817,-44.739,-8.606,-8.606
1.088,-0.605,-0.724,-39.551,-12.451,-7.141
1.121,-0.572,-0.71,-35.339,-7.324,-5.31
1.094,-0.523,-0.699,-27.222,-0.488,-4.761
1.029,-0.428,-0.688,-16.174,6.104,-4.089
0.963,-0.326,-0.664,-5.493,8.728,-2.869
0.92,-0.251,-0.606,0.366,5.005,-2.808
0.87,-0.162,-0.491,3.357,-1.709,-2.808
0.89,-0.13,-0.371,6.958,-8.301,-3.723
0.949,-0.17,-0.272,6.836,-12.939,-6.897
1.003,-0.226,-0.194,4.639,-13.123,-9.521
1.068,-0.262,-0.121,4.944,-11.658,-10.01
1.113,-0.278,-0.063,5.92,-10.376,-7.935
1.129,-0.279,-0.018,5.676,-8.484,-6.165
1.13,-0.266,0.019,6.287,-5.005,-5.371
1.141,-0.257,0.038,8.667,-1.282,-5.249
1.16,-0.262,0.035,9.644,2.38,-5.005
1.158,-0.266,0.026,9.583,6.165,-4.272
1.136,-0.263,0.016,10.864,9.827,-3.052
1.132,-0.268,0.017,12.451,11.841,-1.709
1.13,-0.281,0.007,11.292,12.024,0
1.117,-0.285,-0.003,9.583,11.353,1.709
1.082,-0.253,-0.007,10.437,11.108,3.662
1.044,-0.219,0.017,12.085,10.62,5.432
1.032,-0.225,0.027,11.719,9.827,6.348
1.025,-0.25,0.018,9.46,8.667,6.226
1.016,-0.247,0.022,8.179,7.141,5.432
1.011,-0.244,0.028,8.606,5.92,5.127
1.02,-0.261,0.036,7.324,4.578,5.31
1.018,-0.279,0.03,4.883,3.052,6.958
1.017,-0.297,0.017,2.808,0.183,8.972
1.021,-0.294,0.009,2.014,-2.441,10.254
1.011,-0.285,0.017,2.502,-3.418,10.803
1.001,-0.293,0.022,2.991,-3.418,10.071
0.998,-0.292,0.037,3.357,-3.784,10.132
0.982,-0.262,0.062,4.517,-4.456,11.169
0.975,-0.249,0.071,5.127,-4.333,11.78
0.976,-0.254,0.076,4.211,-4.883,12.329
0.973,-0.244,0.079,2.869,-5.859,13.306
0.974,-0.227,0.078,2.563,-6.348,13.55
0.974,-0.236,0.075,1.831,-6.104,12.024
0.969,-0.242,0.068,0.793,-5.066,10.681
0.974,-0.259,0.048,0.122,-3.784,9.949
0.964,-0.254,0.028,-0.366,-3.357,10.437
0.954,-0.238,0.024,-0.366,-4.272,11.353
0.95,-0.226,0.025,-0.671,-5.493,11.658
0.927,-0.203,0.028,-1.16,-5.92,11.658
0.916,-0.191,0.029,-1.16,-5.493,10.925
0.921,-0.2,0.027,-1.404,-5.615,9.094
0.924,-0.209,0.026,-1.892,-5.981,7.568
0.933,-0.212,0.03,-1.648,-5.31,6.653
0.94,-0.216,0.027,-1.099,-3.784,6.226
0.933,-0.217,0.01,-1.282,-2.197,6.348
0.927,-0.224,-0.006,-1.465,-1.465,6.042
0.925,-0.225,-0.017,-1.526,-1.343,5.554
0.918,-0.223,-0.027,-1.16,-1.343,5.188
0.913,-0.217,-0.035,-0.244,-1.892,5.127
0.916,-0.219,-0.032,0,-2.686,5.371
0.912,-0.219,-0.03,-0.549,-3.662,6.042
0.919,-0.219,-0.016,-1.038,-4.883,6.897
0.928,-0.222,0.008,-1.709,-5.615,7.812
0.938,-0.219,0.019,-1.587,-4.272,8.118
0.943,-0.22,0.02,-0.854,-1.77,7.324
0.956,-0.226,0.021,-0.427,0,6.104
0.962,-0.23,0.019,-0.366,1.221,5.432
0.949,-0.213,0.016,0.61,3.113,5.127
0.944,-0.196,0.017,2.441,4.578,3.662
0.946,-0.202,0.014,2.441,4.883,2.441
0.941,-0.195,0.006,1.343,4.456,2.93
0.931,-0.185,0.004,0.732,3.174,3.418
0.944,-0.199,0.005,0.61,1.709,2.93
0.962,-0.213,0.007,0.244,0.61,2.93
0.969,-0.222,-0.003,0.427,0.427,3.479
0.979,-0.228,-0.008,1.709,0.977,3.052
0.982,-0.227,-0.013,3.357,1.465,2.991
0.966,-0.203,-0.001,4.211,0.916,3.052
0.944,-0.165,0.015,4.028,-0.183,2.747
0.931,-0.149,0.033,3.357,-1.16,2.136
0.939,-0.154,0.038,2.136,-2.014,1.709
0.942,-0.165,0.035,0.183,-2.258,1.221
0.951,-0.18,0.027,-0.854,-2.197,0.427
0.973,-0.203,0.019,-0.977,-2.197,-0.122
0.984,-0.217,0.011,-0.732,-1.831,0.061
0.988,-0.217,0.008,-0.305,-1.404,0.366
0.994,-0.221,0.006,0.854,-1.099,0.488
0.998,-0.214,0.008,1.465,-0.793,0.671
0.984,-0.187,0.007,2.38,-0.61,1.404
0.978,-0.185,0.007,2.686,-0.671,1.099
0.98,-0.196,0,2.502,-0.732,0.488
0.982,-0.2,0.006,2.808,-1.099,0
0.983,-0.189,0.016,2.991,-1.221,-0.305
0.975,-0.192,0.023,2.441,-0.916,-0.854
0.969,-0.189,0.027,2.014,-0.366,-1.221
0.97,-0.193,0.028,2.258,-0.122,-1.282
0.967,-0.193,0.033,2.014,-0.366,-1.282
0.967,-0.202,0.035,2.075,-0.671,-1.221
0.966,-0.204,0.031,1.77,-0.244,-1.221
0.953,-0.191,0.028,2.014,0.305,-0.916
0.944,-0.186,0.027,2.563,0.977,-1.282
0.943,-0.182,0.025,2.93,1.16,-1.343
0.937,-0.178,0.026,2.747,1.099,-1.038
0.928,-0.174,0.029,2.502,0.916,-1.404
0.921,-0.169,0.032,2.563,0.305,-1.831
0.931,-0.182,0.031,2.136,-0.671,-2.93
0.95,-0.209,0.02,0.793,-1.038,-3.662
0.964,-0.225,0.001,-0.366,-1.343,-3.784
0.979,-0.237,-0.013,-0.305,-1.526,-3.723
0.99,-0.234,-0.01,0.488,-1.709,-3.235
0.992,-0.228,-0.008,0.977,-1.343,-2.563
0.997,-0.229,-0.006,1.038,-1.16,-2.258
0.997,-0.228,-0.008,0.61,-1.038,-1.831
0.983,-0.216,-0.001,1.099,-1.221,-1.282
,,,,,
1.115,-0.995,-0.517,-81.97,35.095,-33.691
1.014,-0.833,-0.574,-58.594,42.664,-27.283
0.935,-0.695,-0.649,-37.354,48.096,-24.719
0.892,-0.649,-0.739,-30.457,43.274,-25.513
0.852,-0.64,-0.79,-30.09,28.198,-22.888
0.895,-0.624,-0.791,-28.381,9.521,-17.029
0.956,-0.595,-0.721,-26.611,-5.798,-10.925
1.009,-0.544,-0.658,-22.217,-12.024,-7.751
1.057,-0.53,-0.631,-15.747,-10.986,-7.568
1.048,-0.516,-0.628,-10.01,-9.521,-5.432
0.98,-0.436,-0.589,-3.174,-11.597,-0.854
0.936,-0.349,-0.533,5.31,-14.771,2.563
0.932,-0.294,-0.469,11.047,-18.25,3.052
0.956,-0.271,-0.392,14.099,-20.996,3.906
0.956,-0.204,-0.254,16.235,-23.987,4.578
0.989,-0.143,-0.125,17.639,-25.513,2.991
1.03,-0.116,-0.04,16.541,-23.804,-0.183
1.045,-0.116,-0.006,14.282,-18.311,-1.16
1.072,-0.137,0.006,12.268,-14.16,-1.648
1.097,-0.164,0.016,10.62,-13.733,-1.892
1.145,-0.188,0.035,7.629,-14.587,-0.427
1.179,-0.224,0.037,5.066,-15.259,0.244
1.209,-0.244,0.039,4.578,-13.245,2.014
1.218,-0.232,0.034,5.615,-9.216,2.075
1.233,-0.26,0.012,5.981,-3.662,0.488
1.195,-0.245,-0.013,6.226,-0.366,-0.366
1.19,-0.229,-0.02,7.019,1.221,0.732
1.184,-0.237,-0.007,6.958,-0.427,1.099
1.179,-0.24,0.009,6.165,-1.221,3.235
1.151,-0.221,0.029,6.897,-1.038,4.578
1.165,-0.232,0.046,8.24,0.488,4.272
1.161,-0.252,0.045,7.629,1.709,4.7
1.153,-0.268,0.04,5.798,2.686,6.592
1.128,-0.276,0.039,5.493,3.113,8.057
1.11,-0.275,0.036,6.836,4.7,7.812
1.083,-0.258,0.029,9.216,6.958,7.812
1.043,-0.247,0.029,10.315,7.996,8.057
1.002,-0.239,0.039,10.62,6.958,8.057
0.974,-0.228,0.063,10.742,5.188,7.751
0.942,-0.202,0.097,10.437,4.333,6.775
0.928,-0.192,0.113,9.827,4.211,5.493
0.921,-0.205,0.123,7.019,3.113,4.456
0.913,-0.21,0.126,3.113,1.648,4.395
0.898,-0.201,0.133,0.427,0.854,4.089
0.896,-0.203,0.125,-1.221,1.343,2.686
0.908,-0.22,0.107,-2.136,2.686,1.465
0.905,-0.233,0.089,-2.563,3.906,1.038
0.902,-0.243,0.076,-1.77,3.662,0.854
0.914,-0.256,0.062,-1.343,2.869,1.648
0.917,-0.258,0.046,-1.526,1.831,2.869
0.912,-0.259,0.039,-1.587,1.038,3.235
0.909,-0.258,0.033,-0.732,0.305,2.625
0.91,-0.258,0.019,0.244,-0.122,0.366
0.915,-0.263,0.006,1.16,-0.488,-0.977
0.911,-0.244,0.014,2.014,-1.587,-1.709
0.914,-0.233,0.032,3.113,-1.648,-1.831
0.914,-0.217,0.043,2.625,-0.854,-1.831
0.917,-0.221,0.037,1.465,0.061,-1.709
0.92,-0.237,0.03,0.183,0.793,-1.16
0.926,-0.251,0.019,-0.732,0.916,-0.793
0.924,-0.248,0.01,0.183,1.587,-0.305
0.929,-0.241,0.01,1.526,1.77,-0.427
0.932,-0.243,0.008,1.953,2.38,-1.16
0.936,-0.253,0,1.709,2.747,-2.136
0.943,-0.257,-0.008,1.465,2.686,-2.441
0.954,-0.256,-0.015,1.77,2.38,-2.991
0.966,-0.27,-0.019,1.282,2.136,-4.089
0.974,-0.27,-0.029,0.671,1.343,-4.517
0.976,-0.276,-0.025,0.732,0.671,-3.54
0.966,-0.258,-0.006,0.793,-0.122,-2.441
0.973,-0.239,0.002,2.075,0.061,-1.709
0.985,-0.245,0.005,2.808,0.427,-2.319
0.996,-0.252,0.006,3.113,0.366,-2.563
1.006,-0.257,0.009,2.808,-0.244,-2.136
1.008,-0.264,0.018,2.075,-0.854,-1.221
0.987,-0.26,0.028,1.465,-1.282,-0.061
0.954,-0.227,0.032,2.014,-0.916,0.61
0.938,-0.203,0.047,3.906,0,0.305
0.946,-0.209,0.058,4.211,0.122,-0.916
0.96,-0.226,0.065,2.747,-1.343,-1.831
0.977,-0.241,0.077,1.465,-2.197,-2.563
0.994,-0.252,0.08,0.427,-1.343,-2.808
0.998,-0.257,0.082,0.427,0.732,-2.869
0.993,-0.242,0.079,0.854,2.014,-3.052
0.997,-0.248,0.083,1.526,2.625,-2.625
0.995,-0.244,0.083,1.282,2.808,-2.625
0.995,-0.253,0.08,0.671,2.625,-2.747
0.993,-0.258,0.08,-0.305,2.075,-1.953
0.984,-0.247,0.075,-1.343,1.953,-0.793
0.969,-0.234,0.073,-1.648,1.77,0
0.958,-0.229,0.07,-2.075,1.953,-0.916
0.954,-0.234,0.065,-2.869,2.258,-1.892
0.958,-0.245,0.051,-3.845,1.953,-1.831
0.962,-0.261,0.038,-4.883,1.831,-1.282
0.962,-0.265,0.024,-4.883,1.526,-0.916
0.958,-0.266,0.012,-3.662,1.526,-0.793
0.959,-0.268,-0.003,-2.075,1.709,-1.099
0.959,-0.271,-0.013,-0.366,1.587,-1.526
0.953,-0.269,-0.013,1.282,0.793,-1.953
0.943,-0.249,0.002,2.197,-0.366,-1.953
0.944,-0.236,0.024,1.892,-1.892,-1.831
0.951,-0.238,0.034,0.244,-2.991,-2.197
0.94,-0.235,0.042,-0.916,-3.296,-2.258
0.948,-0.24,0.048,-1.282,-2.563,-2.197
0.962,-0.257,0.04,-2.136,-1.953,-2.075
0.966,-0.27,0.032,-2.563,-1.16,-2.319
0.967,-0.269,0.03,-1.77,0.366,-3.174
0.966,-0.273,0.029,-0.427,1.77,-2.808
0.948,-0.259,0.033,0.061,1.953,-1.587
0.934,-0.248,0.038,-0.427,1.282,-0.916
0.933,-0.242,0.044,-0.427,0.488,-1.16
0.928,-0.242,0.042,-1.099,1.221,-1.648
0.927,-0.245,0.037,-1.648,1.953,-2.014
0.931,-0.254,0.026,-2.075,1.831,-2.136
0.935,-0.271,0.012,-2.563,0.671,-2.197
0.942,-0.278,0.005,-1.831,-0.732,-2.686
0.946,-0.277,0.006,-1.038,-0.916,-2.441
0.946,-0.277,0.008,-0.671,-0.916,-1.831
0.947,-0.276,0.007,-0.793,-1.465,-1.404
,,,,,
0.987,-0.698,-0.771,-18.86,25.33,2.197
0.928,-0.567,-0.766,-8.667,27.222,6.348
0.941,-0.51,-0.757,1.099,26.733,6.592
0.988,-0.475,-0.739,6.653,23.254,7.812
1.006,-0.397,-0.734,11.047,16.724,11.902
1.033,-0.327,-0.698,14.343,8.423,14.465
1.036,-0.238,-0.619,17.395,0.549,15.381
1.025,-0.154,-0.517,19.836,-4.272,15.137
1.023,-0.103,-0.387,20.569,-6.592,13.855
1.026,-0.068,-0.268,21.606,-4.089,11.292
1.061,-0.048,-0.2,24.048,1.587,9.155
1.088,-0.039,-0.168,25.513,8.179,7.935
1.073,-0.016,-0.145,25.269,12.329,7.263
1.077,0.014,-0.142,26.245,14.404,6.836
1.1,-0.001,-0.15,26.489,14.587,5.066
1.111,-0.021,-0.142,26.306,12.329,4.333
1.095,0.005,-0.112,28.015,7.263,5.127
1.11,0.046,-0.16,30.518,0.732,5.737
1.099,0.031,-0.109,28.87,-1.526,2.747
1.109,0.057,-0.08,28.564,-3.113,0.671
1.119,0.037,-0.016,26.55,-5.493,-1.77
1.155,0.007,0,21.973,-7.568,-3.723
1.185,-0.027,0.05,16.663,-6.592,-6.165
1.224,-0.057,0.087,13.489,-5.31,-8.057
1.253,-0.072,0.104,9.399,-3.906,-7.446
1.234,-0.059,0.101,6.775,-2.014,-6.47
1.207,-0.046,0.098,6.226,-1.343,-6.165
1.208,-0.081,0.1,5.249,-2.991,-6.47
1.219,-0.119,0.101,2.258,-4.944,-5.005
1.216,-0.15,0.102,-0.183,-5.554,-3.113
1.22,-0.184,0.081,-1.038,-4.272,-1.343
1.235,-0.227,0.043,-1.221,-1.709,0.854
1.214,-0.254,0.01,-0.549,0.732,4.15
1.17,-0.241,-0.013,0.854,2.93,7.568
1.12,-0.224,-0.026,2.38,3.845,10.01
1.075,-0.213,-0.031,3.296,3.662,10.925
1.024,-0.202,-0.031,3.723,3.357,10.742
0.969,-0.173,-0.033,4.822,2.075,11.169
0.931,-0.162,-0.024,5.615,-0.183,10.315
0.908,-0.155,-0.012,5.249,-2.686,8.484
0.888,-0.148,0,4.15,-5.127,7.141
0.889,-0.163,0.006,2.258,-7.751,5.676
0.914,-0.183,0.013,0.488,-10.193,4.822
0.915,-0.174,0.02,-0.488,-10.925,5.676
0.919,-0.172,0.023,-0.366,-9.705,5.31
0.932,-0.187,0.031,-0.122,-8.484,4.456
0.939,-0.203,0.023,-1.16,-8.301,4.578
0.945,-0.224,-0.006,-0.793,-7.263,4.517
0.955,-0.226,-0.022,1.953,-5.066,3.723
0.954,-0.209,-0.028,4.517,-2.808,3.235
0.946,-0.2,-0.032,5.676,-1.526,3.418
0.939,-0.194,-0.032,5.127,-1.587,4.456
0.919,-0.178,-0.021,4.211,-2.563,5.676
0.891,-0.151,-0.007,4.272,-3.052,5.676
0.868,-0.117,0.006,5.432,-1.831,4.761
0.864,-0.108,0.013,5.676,-0.366,2.808
0.875,-0.129,0.009,3.845,-0.122,1.465
0.888,-0.147,-0.004,1.16,-0.671,1.892
0.895,-0.165,-0.008,-0.671,-1.282,2.38
0.903,-0.177,-0.016,-1.038,-1.709,1.709
0.921,-0.195,-0.022,-1.099,-1.648,1.038
0.933,-0.199,-0.03,-1.16,-1.343,1.16
0.94,-0.195,-0.042,-0.671,-0.732,1.465
0.931,-0.201,-0.05,-0.488,-0.488,1.038
0.903,-0.188,-0.044,0.916,-1.038,0.305
0.888,-0.165,-0.036,4.15,-1.282,0.427
0.88,-0.145,-0.007,6.165,-1.831,-0.61
0.886,-0.14,0.007,6.531,-2.136,-2.075
0.904,-0.148,0.02,5.737,-2.258,-3.052
0.928,-0.157,0.031,4.7,-2.991,-3.967
0.958,-0.166,0.042,3.357,-3.845,-4.272
0.974,-0.175,0.047,1.526,-3.296,-4.578
0.992,-0.178,0.038,0.793,-2.319,-4.944
1.008,-0.192,0.031,0.488,-1.648,-5.31
1.008,-0.182,0.037,0.366,-1.221,-4.578
0.997,-0.166,0.049,1.099,-0.488,-4.089
1.001,-0.158,0.058,1.099,-0.305,-4.089
1,-0.169,0.051,-0.122,0.183,-3.601
1.008,-0.184,0.038,-0.305,0.61,-3.601
1.016,-0.182,0.022,0.183,1.465,-2.808
1.016,-0.17,0.01,-0.366,1.526,-2.502
1.021,-0.183,0.005,-1.587,0.732,-2.747
1.028,-0.186,0.002,-2.014,-0.549,-2.319
1.029,-0.182,0.008,-1.465,-1.465,-2.319
1.032,-0.172,0.015,-0.183,-1.587,-3.052
1.043,-0.174,0.015,0.366,-1.465,-3.601
1.04,-0.177,0.008,-0.061,-1.648,-3.418
1.036,-0.175,0.001,-0.122,-1.953,-2.93
1.04,-0.181,0.003,-0.671,-2.747,-2.563
1.04,-0.176,0.01,-1.16,-3.357,-1.587
1.042,-0.179,0.015,-1.526,-3.174,-0.488
1.043,-0.191,0.01,-1.465,-2.136,0.183
1.048,-0.2,0.005,-0.916,-0.854,0.854
1.039,-0.2,-0.001,-0.305,0.488,2.014
1.036,-0.198,-0.015,0.671,1.953,3.296
1.028,-0.205,-0.024,1.526,2.991,3.967
1.011,-0.207,-0.04,2.991,3.906,3.967
1.001,-0.198,-0.038,4.517,3.479,4.517
0.978,-0.182,-0.031,4.7,2.014,5.432
0.943,-0.15,-0.009,4.7,0.671,5.737
0.939,-0.138,0.011,4.822,-0.061,4.639
0.941,-0.156,0.008,3.052,-0.122,2.93
0.929,-0.166,0,1.465,0.122,2.075
0.928,-0.173,-0.005,1.587,0,1.16
0.939,-0.191,-0.016,1.343,-0.732,0.427
0.944,-0.203,-0.027,1.16,-1.587,1.038
0.935,-0.201,-0.031,1.587,-2.258,1.77
0.939,-0.194,-0.023,3.296,-3.418,2.258
0.943,-0.195,-0.009,4.089,-4.211,2.93
0.929,-0.176,0.003,4.578,-3.418,3.54
0.923,-0.162,0.017,5.676,-1.709,3.113
0.927,-0.171,0.017,6.409,0,1.77
0.928,-0.176,0.008,5.615,0.977,1.587
0.93,-0.181,0,4.944,0.916,1.892
0.929,-0.18,-0.003,5.066,1.16,1.099
0.936,-0.186,-0.015,5.249,1.221,0.183
0.937,-0.196,-0.02,5.249,0.854,-0.854
0.928,-0.166,-0.021,6.47,0.488,-1.343
0.922,-0.153,-0.005,7.69,0.732,-1.953
,,,,,
1.241,-1.459,-0.542,-102.783,27.283,-37.17
1.362,-1.468,-0.698,-98.816,27.466,-40.588
1.434,-1.502,-0.862,-92.285,30.945,-41.138
1.397,-1.439,-1.036,-79.285,34.851,-31.067
1.28,-1.262,-1.147,-62.073,30.518,-13.672
1.135,-1.047,-1.156,-44.312,16.968,1.282
1.02,-0.829,-1.076,-26.428,2.869,11.108
0.946,-0.642,-0.964,-8.423,-3.845,14.16
0.893,-0.494,-0.83,6.775,-5.493,13.062
0.859,-0.339,-0.697,17.7,-6.47,11.475
0.857,-0.22,-0.561,22.095,-10.01,9.644
0.871,-0.142,-0.455,19.531,-14.526,7.324
0.891,-0.119,-0.382,14.648,-18.127,4.822
0.918,-0.104,-0.34,10.925,-20.325,1.709
0.939,-0.097,-0.309,10.01,-20.508,-0.549
0.968,-0.12,-0.28,9.583,-19.348,-3.235
1.003,-0.147,-0.245,9.827,-18.677,-5.432
1.024,-0.182,-0.188,10.132,-20.264,-6.531
1.072,-0.2,-0.151,10.071,-22.217,-6.409
1.083,-0.213,-0.105,8.789,-23.01,-5.493
1.098,-0.215,-0.068,7.874,-22.339,-4.333
1.137,-0.233,-0.011,8.179,-21.423,-3.54
1.152,-0.238,0.054,8.545,-19.287,-2.747
1.165,-0.23,0.085,10.254,-13.123,-2.258
1.156,-0.213,0.107,13.062,-5.066,-3.601
1.139,-0.199,0.124,14.954,1.587,-4.761
1.113,-0.176,0.134,14.709,5.92,-4.395
1.093,-0.163,0.146,12.878,8.362,-3.784
1.084,-0.157,0.158,9.888,9.583,-2.869
1.078,-0.163,0.153,6.348,11.047,-1.282
1.057,-0.15,0.134,4.333,12.329,0.366
1.046,-0.146,0.122,3.418,13.855,1.16
1.044,-0.158,0.114,1.648,14.16,1.038
1.038,-0.172,0.112,-1.221,13.367,1.16
1.026,-0.187,0.089,-3.906,12.329,0.854
1.02,-0.207,0.068,-4.517,11.353,0.305
1.023,-0.228,0.054,-4.211,9.399,0.488
1.027,-0.246,0.048,-4.15,7.568,1.465
1.024,-0.255,0.045,-3.662,5.798,2.93
1.02,-0.259,0.033,-2.93,4.7,3.418
1.005,-0.261,0.024,-1.892,4.761,3.174
0.991,-0.261,0.01,-0.366,5.127,3.235
0.972,-0.247,0.003,1.831,5.554,3.235
0.957,-0.23,0.009,3.479,3.967,2.808
0.949,-0.214,0.025,3.54,0.244,2.686
0.951,-0.213,0.048,2.319,-3.296,3.113
0.958,-0.204,0.062,0.977,-5.676,3.723
0.96,-0.202,0.07,0.183,-5.981,3.54
0.965,-0.204,0.072,0.061,-4.883,2.258
0.972,-0.206,0.078,0.305,-4.089,1.343
0.973,-0.2,0.087,0.183,-3.418,1.404
0.98,-0.2,0.088,-0.977,-3.479,1.404
0.983,-0.206,0.081,-2.93,-3.113,1.465
0.978,-0.204,0.071,-4.15,-2.258,2.136
0.98,-0.201,0.059,-4.456,-1.343,2.686
0.977,-0.204,0.041,-4.517,-0.427,2.869
0.953,-0.198,0.022,-3.845,-0.183,3.601
0.931,-0.179,0.012,-1.892,-0.793,3.784
0.926,-0.181,0.017,-0.61,-1.831,3.54
0.932,-0.189,0.016,0.183,-1.831,2.808
0.934,-0.191,0.009,1.648,-0.61,2.014
0.936,-0.194,0.003,2.991,1.343,0.549
0.94,-0.205,0.006,3.296,1.892,-0.549
0.947,-0.214,-0.002,1.892,1.648,-0.916
0.948,-0.227,-0.013,0.732,1.404,-0.427
0.949,-0.234,-0.028,0.427,1.404,0.366
0.958,-0.251,-0.032,0.549,1.221,0.671
0.967,-0.279,-0.037,0.427,1.099,0.854
0.972,-0.287,-0.051,1.404,0.854,1.343
0.973,-0.282,-0.061,3.906,0.671,1.465
0.968,-0.277,-0.057,5.676,0.61,1.648
0.959,-0.261,-0.043,7.08,-0.122,2.747
0.954,-0.233,-0.023,8.484,-0.854,3.662
0.945,-0.218,-0.006,9.155,-0.854,3.174
0.937,-0.216,0.001,9.521,-0.549,1.831
0.925,-0.206,0.011,10.01,-0.61,1.099
0.918,-0.184,0.026,10.01,-1.404,1.16
0.918,-0.175,0.046,9.277,-2.38,1.221
0.92,-0.176,0.059,8.423,-2.991,0.549
0.931,-0.19,0.074,7.385,-2.869,-0.122
0.948,-0.203,0.073,6.592,-1.892,-0.427
0.962,-0.212,0.066,6.287,-0.183,-0.916
0.969,-0.212,0.057,5.92,1.16,-1.221
0.974,-0.211,0.057,5.554,1.343,-1.221
0.974,-0.212,0.051,4.822,0.916,-1.099
0.974,-0.217,0.049,3.906,0.061,-1.282
0.975,-0.213,0.05,3.723,-0.854,-1.343
0.973,-0.207,0.054,3.662,-1.709,-1.038
0.974,-0.206,0.061,3.174,-2.502,-1.16
0.981,-0.206,0.063,3.357,-2.686,-1.282
0.988,-0.206,0.063,3.235,-1.953,-1.587
0.981,-0.201,0.058,3.418,-0.671,-2.014
0.976,-0.193,0.06,3.784,-0.671,-1.953
0.979,-0.19,0.061,3.479,-1.282,-1.831
0.986,-0.196,0.061,2.38,-2.075,-1.709
0.995,-0.203,0.058,1.465,-2.38,-1.587
1.006,-0.219,0.06,0.977,-2.197,-1.404
1.01,-0.236,0.05,0.732,-1.77,-1.038
1.005,-0.236,0.033,1.709,-0.977,-0.854
1,-0.23,0.02,2.93,-0.183,-1.465
1,-0.23,0.015,3.662,-0.244,-1.709
1.005,-0.239,0.014,3.418,-0.916,-1.343
1.008,-0.243,0.012,2.686,-1.404,-0.244
1.004,-0.247,0.009,2.747,-1.465,0.732
1,-0.243,0.006,4.15,-0.61,0.916
0.997,-0.237,0.008,5.92,1.038,0.366
0.993,-0.231,0.012,7.019,1.953,0.183
0.979,-0.219,0.015,6.47,1.709,0.916
0.965,-0.213,0.015,5.615,0.244,1.404
0.958,-0.208,0.017,5.005,-1.404,1.282
0.957,-0.208,0.026,4.272,-2.686,1.343
0.962,-0.206,0.035,3.418,-3.601,1.526
0.964,-0.203,0.043,2.319,-4.395,2.075
0.968,-0.209,0.056,0.977,-4.883,2.075
0.974,-0.214,0.06,0.305,-4.456,1.831
0.975,-0.211,0.053,0.122,-2.93,1.038
0.971,-0.217,0.046,0,-1.038,0.244
0.968,-0.219,0.038,-0.061,0.061,0
0.966,-0.219,0.024,-0.366,0.061,0.183
,,,,,
0.99,-1.333,-1.004,-133.789,50.354,-46.387
0.991,-1.304,-1.163,-129.15,30.823,-33.386
1.073,-1.263,-1.207,-113.22,13.855,-22.4
1.143,-1.227,-1.252,-94.788,8.484,-15.015
1.107,-1.14,-1.281,-74.036,13.123,-8.972
1.043,-0.989,-1.256,-48.767,14.893,-3.967
0.956,-0.77,-1.151,-26.55,7.751,1.221
0.839,-0.512,-0.971,-12.329,-6.531,5.31
0.811,-0.338,-0.757,-5.798,-22.217,3.784
0.82,-0.237,-0.575,-5.31,-31.067,-0.061
0.814,-0.152,-0.427,-5.31,-33.325,-2.136
0.83,-0.102,-0.289,-4.944,-33.691,-4.578
0.896,-0.12,-0.189,-7.996,-34.607,-9.277
0.985,-0.163,-0.126,-13.367,-34.485,-12.634
1.059,-0.204,-0.088,-17.456,-32.654,-13.184
1.126,-0.246,-0.071,-18.005,-27.344,-13.855
1.185,-0.277,-0.066,-15.503,-18.921,-14.709
1.22,-0.309,-0.076,-13,-9.399,-14.648
1.249,-0.353,-0.117,-11.597,-0.122,-13.55
1.252,-0.402,-0.169,-9.583,7.568,-11.719
1.253,-0.422,-0.214,-6.042,13.184,-9.644
1.228,-0.412,-0.235,-1.77,16.113,-7.69
1.192,-0.371,-0.239,1.587,16.235,-4.7
1.148,-0.323,-0.222,4.089,13.916,-1.587
1.131,-0.309,-0.194,5.737,10.925,1.16
1.11,-0.298,-0.176,6.836,8.301,3.479
1.093,-0.284,-0.151,8.789,6.104,4.517
1.074,-0.267,-0.116,10.62,4.639,4.578
1.059,-0.243,-0.086,11.658,3.601,4.7
1.059,-0.252,-0.057,11.719,2.869,4.761
1.063,-0.267,-0.034,10.376,2.258,5.493
1.051,-0.276,-0.016,9.033,1.526,7.568
1.036,-0.271,-0.001,9.277,1.465,8.789
1.023,-0.254,0.026,10.01,1.709,9.521
1.012,-0.248,0.057,9.705,2.197,9.583
1.001,-0.243,0.076,8.179,2.502,9.888
0.992,-0.251,0.079,6.47,3.235,10.254
0.978,-0.251,0.074,5.554,3.967,10.376
0.969,-0.247,0.081,5.798,4.639,9.949
0.973,-0.252,0.09,5.432,5.371,9.216
0.97,-0.258,0.082,4.578,7.08,8.606
0.958,-0.256,0.057,4.639,8.728,8.057
0.946,-0.25,0.043,5.005,9.216,6.897
0.949,-0.253,0.038,4.456,8.606,6.409
0.943,-0.249,0.021,3.357,7.446,6.897
0.931,-0.238,0.008,2.441,6.592,6.47
0.916,-0.227,0.012,2.014,5.798,5.554
0.9,-0.207,0.02,2.014,4.7,5.127
0.894,-0.197,0.022,1.465,4.211,4.578
0.892,-0.199,0.022,0.671,4.517,4.578
0.893,-0.203,0.012,-0.061,4.944,4.089
0.899,-0.214,-0.004,-0.916,5.066,3.235
0.911,-0.236,-0.025,-1.831,4.333,2.991
0.922,-0.254,-0.044,-2.136,2.258,2.686
0.931,-0.259,-0.055,-1.709,1.221,2.075
0.934,-0.25,-0.061,-0.427,0.793,2.197
0.932,-0.242,-0.068,0.488,-0.061,2.075
0.931,-0.241,-0.069,0.793,-0.854,1.465
0.938,-0.247,-0.064,0.732,-1.343,0.305
0.943,-0.247,-0.061,1.282,-1.587,0
0.94,-0.239,-0.063,2.075,-0.732,-0.183
0.937,-0.231,-0.058,2.747,0.122,-0.732
0.943,-0.228,-0.053,2.686,0.183,-1.282
0.951,-0.239,-0.054,1.709,-0.244,-1.526
0.959,-0.249,-0.057,1.282,-0.977,-1.221
0.962,-0.245,-0.058,1.465,-1.892,-0.61
0.969,-0.248,-0.052,2.136,-2.38,-0.366
0.972,-0.249,-0.047,2.502,-2.869,-0.244
0.976,-0.242,-0.036,2.625,-3.357,0.244
0.977,-0.241,-0.028,2.502,-3.235,1.038
0.977,-0.247,-0.027,2.563,-1.831,0.488
0.977,-0.253,-0.034,3.479,0.427,-0.916
0.975,-0.255,-0.04,4.578,2.258,-1.77
0.976,-0.258,-0.044,4.517,2.686,-2.197
0.98,-0.271,-0.04,3.845,1.587,-1.77
0.981,-0.278,-0.041,2.625,-0.061,-0.366
0.97,-0.268,-0.039,1.953,-1.038,0.977
0.971,-0.265,-0.032,3.296,-1.16,1.221
0.975,-0.263,-0.027,4.028,-0.854,1.16
0.975,-0.261,-0.027,3.662,-0.61,1.892
0.972,-0.253,-0.025,3.662,-0.183,2.502
0.966,-0.244,-0.028,4.639,0.671,2.441
0.961,-0.237,-0.027,5.249,1.16,2.014
0.96,-0.234,-0.022,5.127,0.732,2.014
0.951,-0.233,-0.021,4.333,0,2.319
0.945,-0.229,-0.018,4.15,-0.732,2.136
0.943,-0.228,-0.011,4.211,-1.099,1.648
0.948,-0.239,-0.019,3.906,-1.404,0.305
0.946,-0.243,-0.017,3.906,-1.16,-0.671
0.95,-0.238,-0.015,4.333,-1.465,-1.099
0.956,-0.249,-0.019,4.272,-1.831,-1.282
0.958,-0.249,-0.027,4.272,-2.075,-1.404
0.956,-0.244,-0.021,4.944,-2.38,-1.343
0.964,-0.242,-0.019,4.944,-2.441,-1.465
0.967,-0.25,-0.024,4.639,-2.197,-1.709
0.966,-0.248,-0.032,4.883,-2.197,-1.709
0.963,-0.242,-0.031,5.066,-2.441,-1.648
0.956,-0.23,-0.024,4.761,-2.563,-1.404
0.953,-0.23,-0.024,4.395,-2.38,-1.221
0.947,-0.237,-0.029,4.333,-1.526,-1.526
0.944,-0.235,-0.031,4.822,-0.793,-1.831
0.947,-0.236,-0.024,4.578,-1.282,-1.648
0.955,-0.241,-0.023,3.54,-1.77,-0.977
0.954,-0.254,-0.03,2.93,-1.953,-0.793
0.955,-0.258,-0.036,3.662,-1.587,-1.221
0.958,-0.258,-0.038,4.7,-0.977,-1.587
0.962,-0.256,-0.038,4.7,-0.793,-1.404
0.956,-0.259,-0.048,4.7,-0.854,-1.16
0.953,-0.268,-0.056,5.493,-0.977,-1.831
0.953,-0.271,-0.052,6.348,-1.77,-2.319
0.953,-0.262,-0.038,6.409,-3.296,-1.892
0.96,-0.247,-0.021,5.92,-4.333,-1.343
0.967,-0.248,-0.014,4.883,-4.639,-1.404
0.977,-0.255,-0.01,4.089,-4.883,-2.014
0.982,-0.258,-0.001,3.845,-4.822,-2.136
0.983,-0.255,0.01,3.174,-4.883,-1.892
0.972,-0.241,0.026,2.502,-5.127,-1.343
0.976,-0.234,0.032,2.075,-4.944,-0.854
0.985,-0.245,0.036,2.075,-3.418,-1.648
,,,,,
1.233,-1.151,-0.462,-101.074,-3.601,-51.575
1.374,-1.222,-0.547,-91.553,-3.418,-45.288
1.435,-1.238,-0.645,-77.637,4.7,-37.598
1.421,-1.167,-0.731,-59.021,14.771,-28.015
1.355,-1.043,-0.788,-39.49,20.996,-18.005
1.252,-0.883,-0.791,-23.254,20.813,-8.911
1.137,-0.691,-0.737,-10.62,16.907,-0.793
1.066,-0.546,-0.657,-1.648,9.033,6.042
1.027,-0.434,-0.592,-1.221,-1.282,10.803
1.003,-0.359,-0.518,-4.7,-11.597,14.648
1.001,-0.287,-0.429,-5.798,-18.982,15.259
1.011,-0.247,-0.346,-4.15,-18.86,12.39
0.999,-0.199,-0.278,-0.61,-13.611,8.667
1.006,-0.184,-0.25,2.136,-7.141,4.883
1.027,-0.191,-0.26,2.686,-2.869,1.648
1.036,-0.211,-0.266,1.282,-2.38,0.427
1.023,-0.2,-0.231,-0.244,-3.723,1.16
1.015,-0.175,-0.185,-0.305,-4.211,1.343
1.048,-0.184,-0.168,-2.075,-2.686,-1.099
1.013,-0.228,-0.131,-3.418,-2.258,-3.662
1.083,-0.252,-0.13,-3.235,-1.892,-3.967
1.093,-0.279,-0.096,-1.77,-1.892,-3.479
1.108,-0.277,-0.077,0.061,0.122,-2.136
1.108,-0.276,-0.064,3.357,4.028,-1.709
1.106,-0.274,-0.053,5.676,7.751,-0.671
1.085,-0.262,-0.047,6.714,10.01,1.343
1.072,-0.256,-0.038,7.141,10.986,3.235
1.05,-0.243,-0.029,7.629,11.719,5.554
1.038,-0.23,-0.033,7.751,12.329,6.592
1.017,-0.225,-0.033,6.958,12.024,6.714
1.001,-0.219,-0.026,5.92,10.803,7.141
0.985,-0.21,-0.014,6.47,8.972,7.751
0.98,-0.216,-0.004,6.592,7.324,7.385
0.994,-0.233,-0.003,6.592,5.92,7.385
0.991,-0.241,0.008,6.653,4.761,7.324
0.986,-0.249,0.023,6.897,4.7,6.531
0.991,-0.266,0.039,6.348,4.822,6.287
0.979,-0.27,0.05,5.615,3.784,7.507
0.963,-0.256,0.064,5.493,3.174,8.484
0.962,-0.262,0.069,4.944,2.808,8.301
0.964,-0.269,0.07,4.028,2.808,8.423
0.949,-0.264,0.071,3.784,3.418,8.667
0.933,-0.248,0.076,4.395,4.578,8.24
0.931,-0.244,0.085,4.456,5.188,7.019
0.916,-0.226,0.087,2.93,5.31,6.653
0.893,-0.212,0.084,1.648,5.493,6.104
0.888,-0.205,0.068,1.465,5.249,4.639
0.888,-0.217,0.044,0.427,3.784,3.54
0.896,-0.237,0.029,-2.014,0,3.052
0.914,-0.24,0.022,-2.686,-4.15,3.174
0.937,-0.239,0.033,-3.235,-7.019,2.991
0.954,-0.256,0.025,-3.479,-7.141,1.953
0.966,-0.272,0.019,-3.845,-5.737,1.465
0.965,-0.257,-0.005,-2.502,-4.456,2.197
0.964,-0.254,-0.005,-0.793,-4.028,1.465
0.966,-0.249,-0.003,0.488,-5.432,0.977
0.965,-0.241,0.001,1.587,-7.08,1.709
0.968,-0.229,0.014,2.625,-7.935,1.892
0.98,-0.226,0.024,3.296,-7.568,1.587
0.977,-0.218,0.034,3.113,-6.226,1.648
0.981,-0.219,0.04,2.258,-4.028,1.709
0.985,-0.222,0.037,1.587,-2.563,1.831
0.978,-0.222,0.04,0.793,-1.709,2.502
0.952,-0.191,0.045,0.305,-0.793,3.357
0.942,-0.195,0.04,-0.183,0,3.235
0.942,-0.223,0.015,-2.075,-0.366,2.686
0.952,-0.242,-0.005,-2.808,-1.77,2.808
0.963,-0.253,-0.018,-2.014,-2.38,2.991
0.963,-0.258,-0.027,-0.549,-2.441,2.686
0.96,-0.252,-0.031,1.343,-2.441,2.075
0.96,-0.25,-0.029,2.563,-2.747,1.953
0.964,-0.253,-0.02,2.93,-3.357,2.258
0.971,-0.25,-0.016,3.113,-4.639,2.502
0.974,-0.25,-0.004,3.479,-5.676,2.991
0.976,-0.244,0.007,3.784,-6.104,3.113
0.971,-0.238,0.015,3.601,-5.859,2.869
0.962,-0.223,0.022,4.15,-5.737,2.93
0.953,-0.216,0.032,4.883,-5.249,2.625
0.957,-0.22,0.035,5.188,-5.005,1.77
0.962,-0.226,0.031,4.7,-5.676,2.319
0.959,-0.233,0.025,4.15,-6.897,3.357
0.962,-0.233,0.031,4.272,-8.423,3.479
0.971,-0.232,0.045,4.211,-9.766,3.418
0.977,-0.23,0.051,3.052,-10.437,4.028
0.976,-0.222,0.066,2.136,-9.705,4.028
0.979,-0.219,0.074,3.235,-7.202,2.747
0.975,-0.224,0.07,3.967,-3.845,1.282
0.97,-0.228,0.058,3.357,-1.892,0.977
0.956,-0.229,0.041,2.93,-1.709,1.099
0.939,-0.213,0.043,3.235,-1.953,0.916
0.932,-0.205,0.055,4.395,-2.319,0.061
0.936,-0.216,0.049,3.967,-2.38,-1.526
0.941,-0.225,0.036,3.174,-1.831,-1.892
0.952,-0.231,0.028,3.845,-1.892,-2.502
0.968,-0.249,0.029,3.967,-2.014,-3.174
0.969,-0.251,0.028,2.747,-2.014,-2.502
0.973,-0.253,0.026,3.052,-2.502,-2.197
0.972,-0.245,0.034,3.967,-2.502,-2.38
0.974,-0.242,0.041,5.005,-1.953,-2.93
0.981,-0.247,0.047,5.676,-1.343,-2.38
0.962,-0.235,0.05,4.761,-1.282,-1.648
0.951,-0.221,0.067,5.066,-1.77,-1.404
0.955,-0.214,0.075,5.066,-1.77,-1.404
0.963,-0.23,0.072,4.028,-1.526,-1.526
0.974,-0.24,0.062,3.479,-1.648,-1.465
0.974,-0.242,0.055,2.991,-1.587,-1.16
0.971,-0.239,0.062,2.625,-1.343,-0.793
0.974,-0.243,0.067,2.808,-0.854,-0.488
0.964,-0.241,0.063,2.075,-0.61,0.061
0.957,-0.244,0.062,1.892,-0.549,-0.244
0.958,-0.237,0.057,2.625,0.183,-0.61
0.949,-0.232,0.056,2.686,0.488,-0.488
0.949,-0.238,0.056,2.686,-0.183,0.183
0.951,-0.241,0.058,2.441,-1.343,0.366
0.954,-0.24,0.062,2.625,-1.343,0.061
0.958,-0.243,0.065,3.784,-0.854,-0.183
0.956,-0.24,0.072,3.967,-0.793,0.305
0.95,-0.232,0.078,3.601,-1.343,1.221
0.952,-0.228,0.084,3.052,-1.709,1.099
,,,,,
1.298,-0.991,-0.625,-67.932,3.479,-42.053
1.226,-0.86,-0.712,-51.331,7.446,-31.128
1.128,-0.689,-0.702,-36.743,3.662,-22.705
1.031,-0.555,-0.648,-27.588,-3.479,-17.212
0.997,-0.499,-0.601,-21.912,-10.193,-13.123
1.008,-0.474,-0.574,-19.043,-15.625,-9.705
1.032,-0.428,-0.55,-15.686,-20.569,-6.348
1.042,-0.366,-0.505,-9.46,-23.56,-3.296
1.025,-0.29,-0.461,-3.418,-22.644,-1.831
1.022,-0.237,-0.427,1.221,-19.531,-2.258
1.059,-0.218,-0.388,3.784,-17.517,-3.601
1.099,-0.212,-0.359,4.883,-17.395,-5.188
1.138,-0.222,-0.322,6.104,-17.395,-5.249
1.14,-0.199,-0.283,7.385,-17.151,-5.005
1.134,-0.18,-0.242,9.644,-15.991,-4.456
1.141,-0.172,-0.206,10.254,-15.198,-4.883
1.163,-0.184,-0.174,9.583,-15.503,-5.432
1.156,-0.178,-0.138,9.644,-15.32,-3.784
1.143,-0.164,-0.109,10.498,-14.709,-1.892
1.146,-0.165,-0.085,11.108,-14.282,-1.709
1.167,-0.197,-0.053,10.864,-13.306,-1.404
1.193,-0.208,-0.041,10.742,-10.559,0.732
1.179,-0.201,-0.036,11.414,-6.165,3.601
1.148,-0.182,-0.026,13.855,-2.93,4.822
1.11,-0.153,0,15.564,-1.587,5.859
1.09,-0.148,0.024,15.625,-1.892,6.531
1.074,-0.155,0.047,14.038,-2.686,6.592
1.046,-0.137,0.067,13.367,-3.052,7.507
1.038,-0.136,0.092,13,-3.113,7.568
1.044,-0.156,0.102,10.559,-2.502,7.324
1.044,-0.17,0.096,7.812,-1.648,8.24
1.04,-0.185,0.078,5.92,-0.977,8.545
1.038,-0.201,0.058,4.883,-0.854,8.484
1.035,-0.222,0.041,3.845,-1.404,9.094
1.029,-0.228,0.028,3.906,-2.075,10.437
1.017,-0.228,0.026,4.7,-2.441,11.292
0.999,-0.223,0.031,5.92,-1.892,11.292
0.971,-0.212,0.033,6.653,-1.099,10.986
0.957,-0.212,0.037,6.897,-1.221,10.925
0.941,-0.203,0.045,5.92,-2.197,10.803
0.924,-0.2,0.048,5.615,-3.723,10.071
0.928,-0.204,0.061,5.554,-5.249,8.85
0.92,-0.192,0.075,5.127,-5.615,8.545
0.909,-0.178,0.079,4.761,-5.188,7.935
0.91,-0.18,0.082,3.845,-4.761,6.897
0.926,-0.192,0.076,2.625,-4.456,6.042
0.933,-0.197,0.069,1.587,-5.249,6.714
0.936,-0.189,0.07,1.648,-5.798,7.69
0.943,-0.184,0.07,2.014,-5.127,7.69
0.936,-0.18,0.068,1.831,-4.395,7.69
0.928,-0.172,0.066,1.953,-3.54,7.263
0.926,-0.166,0.058,2.258,-2.197,6.287
0.927,-0.175,0.048,2.319,-0.366,4.822
0.923,-0.17,0.035,2.747,1.709,3.418
0.922,-0.167,0.02,3.357,3.723,1.892
0.921,-0.17,0.012,3.906,4.944,0.793
0.916,-0.167,0.005,4.272,4.456,0.549
0.923,-0.173,0.005,4.7,2.441,0.366
0.943,-0.173,0.004,4.822,-0.244,0.122
0.96,-0.182,0.006,4.578,-1.343,0.061
0.976,-0.193,0.008,4.944,0,-0.183
0.985,-0.192,0.004,6.287,2.686,0.183
0.983,-0.191,0.005,7.446,4.822,0.61
0.97,-0.18,0.021,8.118,5.432,1.038
0.952,-0.151,0.036,7.812,5.615,1.099
0.946,-0.148,0.044,7.08,5.92,-0.061
0.951,-0.153,0.045,5.737,6.042,-1.526
0.956,-0.156,0.041,4.639,6.226,-2.319
0.965,-0.169,0.033,3.906,6.165,-2.808
0.982,-0.187,0.018,4.211,6.165,-2.93
0.987,-0.197,0.009,4.395,5.31,-2.502
0.99,-0.199,0.012,4.517,3.784,-1.587
0.987,-0.19,0.019,4.639,2.441,-0.854
0.989,-0.184,0.027,5.371,1.526,-0.427
0.99,-0.181,0.035,5.432,1.282,-0.916
0.993,-0.177,0.043,5.005,0.488,-0.916
1,-0.174,0.045,4.517,0,-0.549
1.006,-0.188,0.046,3.906,0.122,-0.122
1.007,-0.189,0.042,3.357,0.793,0.122
1.006,-0.184,0.033,3.174,1.953,0.366
1.005,-0.189,0.023,2.869,2.319,0.488
0.995,-0.184,0.018,2.808,1.77,0.793
0.985,-0.176,0.026,3.235,0.488,1.587
0.98,-0.164,0.042,3.357,-0.854,1.953
0.978,-0.15,0.056,3.845,-0.854,1.648
0.979,-0.146,0.064,3.54,-0.916,1.099
0.983,-0.153,0.071,2.686,-1.526,0.916
0.994,-0.165,0.067,1.77,-1.953,1.404
1,-0.169,0.06,1.709,-1.77,1.465
1.003,-0.177,0.051,2.38,-1.16,1.038
1.001,-0.18,0.043,2.563,-0.854,1.343
0.991,-0.172,0.041,2.502,-1.709,1.526
0.993,-0.17,0.041,2.075,-2.197,1.221
0.997,-0.176,0.037,1.282,-2.319,1.343
1.001,-0.189,0.028,0.732,-2.075,1.648
0.998,-0.191,0.016,0.793,-1.16,2.014
0.981,-0.183,0.007,2.136,-0.244,2.014
0.972,-0.177,0.007,3.113,-0.366,2.38
0.98,-0.185,0.009,3.235,-1.099,2.808
0.977,-0.185,0.009,3.235,-1.282,3.418
0.968,-0.17,0.014,4.028,-0.671,3.357
0.971,-0.169,0.03,4.517,-0.488,2.808
0.975,-0.172,0.04,3.052,-0.916,2.93
0.97,-0.17,0.043,1.77,-1.282,3.601
0.973,-0.17,0.047,1.099,-1.038,3.662
0.967,-0.165,0.04,0.549,0,3.601
0.958,-0.164,0.028,0.488,1.038,3.601
0.949,-0.171,0.014,0.732,1.343,3.296
0.941,-0.17,0.009,1.953,1.038,2.869
0.936,-0.163,0.009,3.662,0.305,2.197
0.936,-0.159,0.011,4.883,-0.061,1.648
0.947,-0.167,0.011,5.554,-0.244,0.977
0.958,-0.171,0.013,5.92,-0.488,0.854
0.962,-0.167,0.02,5.432,-1.221,1.343
0.956,-0.159,0.028,4.15,-1.77,2.014
0.953,-0.159,0.033,2.869,-2.014,2.441
0.95,-0.162,0.039,1.831,-2.014,2.197
0.944,-0.156,0.039,1.465,-1.892,1.892
0.95,-0.163,0.034,1.16,-1.465,0.61
,,,,,
1.427,-1.01,-0.691,-94.116,22.827,-47.058
1.442,-1.001,-0.834,-80.811,19.104,-36.926
1.408,-0.941,-0.935,-66.345,17.883,-27.161
1.328,-0.807,-1.012,-51.575,18.005,-18.616
1.238,-0.689,-1.038,-38.818,16.418,-13.428
1.131,-0.572,-1.032,-28.015,14.221,-11.108
1.039,-0.466,-1.005,-17.456,11.963,-10.193
0.989,-0.369,-0.961,-9.644,7.874,-9.521
0.957,-0.337,-0.896,-4.944,1.77,-8.911
0.951,-0.3,-0.826,0.122,-5.31,-7.996
0.971,-0.285,-0.744,5.676,-13.672,-6.653
0.99,-0.263,-0.6,10.071,-23.315,-5.371
1.026,-0.206,-0.425,14.771,-32.166,-3.906
1.088,-0.185,-0.227,18.372,-37.17,-3.784
1.124,-0.13,-0.048,20.081,-36.133,-2.869
1.147,-0.086,0.091,21.667,-29.175,-1.465
1.177,-0.092,0.191,20.508,-19.165,-1.587
1.179,-0.097,0.259,17.639,-9.644,-0.61
1.132,-0.087,0.298,14.099,-1.404,1.099
1.077,-0.069,0.315,10.315,5.859,2.563
1.024,-0.066,0.292,5.737,12.573,2.625
0.992,-0.086,0.245,1.648,16.724,1.587
0.984,-0.128,0.194,-1.16,17.639,0.122
0.974,-0.163,0.156,-2.197,16.541,-0.305
0.966,-0.164,0.128,-1.099,15.259,0.549
0.971,-0.178,0.105,0.122,14.343,-0.122
0.989,-0.21,0.078,0.427,12.817,-1.099
1.013,-0.236,0.046,0.366,10.315,-1.343
1.033,-0.235,0.024,1.465,7.446,-1.221
1.059,-0.241,0.006,2.747,5.554,-0.854
1.059,-0.235,-0.001,3.357,4.761,-0.244
1.056,-0.218,-0.002,4.333,3.784,0.916
1.071,-0.214,-0.003,4.639,2.686,1.77
1.071,-0.212,0.003,3.662,1.831,2.258
1.057,-0.199,0.018,3.296,1.709,2.625
1.053,-0.192,0.045,3.296,1.587,2.502
1.06,-0.207,0.056,2.197,2.747,2.441
1.066,-0.224,0.047,1.831,4.883,3.662
1.07,-0.228,0.037,2.869,7.324,4.7
1.04,-0.214,0.036,2.991,8.667,5.493
1.017,-0.201,0.042,2.747,8.484,6.165
1.007,-0.198,0.045,1.77,7.141,7.141
0.997,-0.209,0.037,0.244,5.371,8.118
0.981,-0.219,0.031,0.549,4.211,7.507
0.967,-0.207,0.033,3.357,4.272,6.165
0.967,-0.207,0.047,5.188,3.723,5.493
0.974,-0.21,0.052,4.456,2.197,6.042
0.955,-0.191,0.056,3.235,0.732,7.935
0.948,-0.171,0.063,3.418,0.61,8.301
0.947,-0.164,0.062,3.723,1.465,7.019
0.931,-0.158,0.064,3.052,2.502,6.226
0.919,-0.157,0.055,3.418,3.235,5.005
0.92,-0.161,0.044,4.639,4.211,2.502
0.92,-0.154,0.035,5.31,4.944,1.099
0.922,-0.154,0.033,4.883,3.723,0.427
0.946,-0.167,0.022,3.235,1.404,0.366
0.951,-0.182,0.01,0.854,-0.671,1.526
0.944,-0.182,0.005,0.61,-1.526,1.953
0.943,-0.176,0.005,2.197,-1.16,1.587
0.953,-0.181,0.01,2.625,-1.404,1.709
0.95,-0.181,0.017,1.343,-2.625,2.625
0.949,-0.184,0.026,1.221,-3.418,3.113
0.956,-0.19,0.035,1.709,-2.991,3.296
0.958,-0.186,0.034,2.197,-1.343,3.418
0.958,-0.189,0.026,2.686,0.488,3.113
0.963,-0.202,0.012,2.563,1.343,2.319
0.959,-0.206,0.007,2.747,1.892,1.709
0.951,-0.203,0.001,3.967,2.441,1.099
0.948,-0.202,-0.004,4.639,2.502,0.366
0.943,-0.204,-0.005,4.395,2.136,-0.061
0.942,-0.202,-0.002,3.784,1.099,-0.427
0.937,-0.204,0.008,3.784,-0.122,-0.916
0.934,-0.2,0.016,4.456,-0.488,-1.465
0.935,-0.191,0.015,4.761,-1.099,-1.709
0.929,-0.191,0.019,4.517,-2.197,-2.136
0.941,-0.184,0.026,4.578,-3.601,-2.38
0.954,-0.184,0.034,4.333,-4.639,-2.319
0.963,-0.191,0.043,4.15,-4.7,-2.136
0.984,-0.194,0.046,4.517,-3.601,-2.014
1.001,-0.2,0.043,4.395,-2.319,-1.77
1.015,-0.204,0.046,3.235,-1.526,-1.648
1.019,-0.196,0.042,2.808,-0.244,-1.343
1.022,-0.197,0.033,2.869,1.648,-1.587
1.02,-0.2,0.019,2.93,2.563,-1.404
1.01,-0.187,0.01,3.418,2.014,-0.61
0.999,-0.178,0.012,3.418,-0.488,0.427
1.001,-0.185,0.019,2.991,-2.869,0.793
1.001,-0.189,0.027,2.747,-4.333,1.282
0.998,-0.178,0.04,3.296,-4.395,1.648
0.998,-0.175,0.05,3.54,-4.639,2.197
1.003,-0.188,0.052,2.686,-4.395,2.686
1.005,-0.194,0.046,2.014,-3.235,3.296
1.005,-0.193,0.044,2.563,-2.136,3.784
1,-0.19,0.042,2.991,-1.16,3.845
0.987,-0.182,0.042,3.296,-0.854,3.479
0.977,-0.176,0.049,4.089,-1.16,2.869
0.961,-0.16,0.054,4.15,-1.282,2.136
0.955,-0.163,0.055,3.54,-1.587,1.038
0.964,-0.177,0.056,2.441,-2.502,0.366
0.974,-0.185,0.057,1.587,-3.479,0.183
0.985,-0.193,0.059,0.671,-3.662,-0.122
0.994,-0.205,0.047,-0.061,-3.235,0.61
1.001,-0.219,0.031,-0.366,-2.441,1.343
1.002,-0.215,0.027,0.977,-1.953,2.075
0.997,-0.206,0.027,2.014,-1.587,2.686
0.996,-0.209,0.026,2.625,-1.16,2.441
0.974,-0.194,0.026,3.357,-0.366,2.441
0.953,-0.169,0.037,4.517,-0.61,2.686
0.955,-0.166,0.055,4.395,-1.648,2.197
0.959,-0.173,0.067,2.991,-2.747,2.136
0.96,-0.177,0.065,1.709,-3.174,1.892
0.961,-0.179,0.058,1.099,-2.93,1.404
0.968,-0.191,0.048,0.366,-2.502,0.549
0.977,-0.204,0.04,-0.122,-2.869,0.488
0.984,-0.207,0.035,0,-3.235,1.038
0.978,-0.209,0.029,0.427,-3.296,1.77
0.97,-0.202,0.03,1.526,-3.113,1.953
0.971,-0.198,0.039,2.686,-3.479,2.197
0.977,-0.201,0.05,2.991,-3.174,2.136
,,,,,
1.153,-1.377,0.127,-124.756,39.001,-90.637
1.21,-1.426,-0.057,-109.68,53.223,-85.388
1.22,-1.38,-0.215,-97.9,55.237,-70.618
1.206,-1.299,-0.307,-90.454,47.424,-52.368
1.117,-1.158,-0.34,-87.402,33.997,-35.706
1.045,-1.03,-0.361,-84.961,17.456,-23.193
1.019,-0.922,-0.381,-86.182,-0.305,-11.414
1.004,-0.807,-0.405,-88.135,-13.794,-1.038
0.999,-0.714,-0.418,-84.961,-13.794,2.136
0.983,-0.649,-0.456,-75.073,0.61,-1.648
0.955,-0.613,-0.532,-63.721,18.616,-6.042
0.875,-0.531,-0.601,-55.237,26.672,-6.531
0.8,-0.425,-0.613,-48.889,19.836,-4.211
0.761,-0.334,-0.571,-44.434,7.507,-3.601
0.755,-0.255,-0.512,-40.039,0.122,-6.042
0.792,-0.238,-0.463,-35.706,-1.099,-12.024
0.867,-0.275,-0.427,-33.02,-0.244,-18.738
0.956,-0.349,-0.412,-33.63,-0.549,-22.156
1.031,-0.388,-0.409,-34.729,-2.075,-20.386
1.081,-0.389,-0.397,-34.363,-4.089,-16.602
1.101,-0.374,-0.368,-32.288,-4.761,-14.771
1.096,-0.334,-0.334,-28.259,-2.441,-14.771
1.071,-0.282,-0.307,-24.292,1.221,-14.893
1.063,-0.262,-0.287,-21.484,4.7,-14.954
1.074,-0.278,-0.271,-19.531,6.653,-14.832
1.095,-0.301,-0.262,-17.395,7.874,-13.916
1.119,-0.334,-0.26,-15.503,8.179,-12.39
1.131,-0.347,-0.258,-13.489,7.263,-10.925
1.134,-0.341,-0.233,-9.949,5.92,-9.338
1.139,-0.339,-0.206,-7.324,5.249,-7.874
1.138,-0.334,-0.185,-4.822,6.287,-6.531
1.122,-0.316,-0.163,-1.038,8.423,-5.249
1.109,-0.283,-0.134,2.686,11.108,-3.723
1.092,-0.262,-0.105,4.456,13.428,-2.441
1.07,-0.237,-0.089,5.371,15.381,-1.465
1.044,-0.22,-0.067,6.287,16.907,-0.366
1.03,-0.204,-0.048,6.531,16.602,0.305
1.019,-0.201,-0.044,5.981,15.747,0.427
1.008,-0.199,-0.036,5.371,14.343,0.244
1.016,-0.206,-0.019,5.005,12.146,0
1.026,-0.219,-0.003,4.639,9.644,0.366
1.03,-0.238,0.007,4.028,8.484,1.953
1.024,-0.238,0.007,5.493,9.399,3.845
1.021,-0.231,0.007,8.362,10.864,3.54
1.004,-0.218,0.016,9.583,11.108,2.686
0.996,-0.206,0.03,10.01,9.46,2.869
0.986,-0.203,0.057,9.46,6.47,3.357
0.987,-0.198,0.088,8.85,3.54,3.845
1.002,-0.205,0.112,7.812,2.319,3.906
1.015,-0.211,0.129,6.165,2.014,3.723
1.022,-0.217,0.136,4.639,3.174,3.723
1.031,-0.226,0.134,3.052,5.066,3.967
1.023,-0.24,0.12,1.648,7.324,4.15
1.011,-0.242,0.108,2.014,9.705,3.845
1.006,-0.243,0.101,3.601,12.329,3.113
1.005,-0.247,0.088,4.517,14.099,3.174
1,-0.239,0.074,4.639,15.137,4.028
0.987,-0.227,0.061,4.578,15.625,4.7
0.977,-0.225,0.05,3.967,15.991,4.456
0.964,-0.222,0.04,3.357,15.686,4.211
0.948,-0.21,0.034,2.808,14.587,3.784
0.955,-0.214,0.03,2.136,13.184,3.052
0.956,-0.222,0.021,1.282,12.39,2.747
0.939,-0.219,0.005,0.793,11.902,2.319
0.92,-0.211,-0.01,2.014,11.658,2.014
0.91,-0.216,-0.02,3.113,10.62,1.343
0.903,-0.213,-0.024,4.089,8.545,1.099
0.901,-0.213,-0.026,4.517,5.554,1.038
0.906,-0.219,-0.026,4.028,2.563,0.977
0.921,-0.236,-0.033,3.479,0.122,0.671
0.928,-0.243,-0.036,3.967,-1.343,0.183
0.93,-0.244,-0.031,4.822,-2.014,0.122
0.938,-0.24,-0.021,5.31,-2.563,0.793
0.934,-0.235,-0.009,4.883,-2.991,1.77
0.928,-0.226,0,4.883,-2.441,1.953
0.923,-0.214,0.01,4.639,-2.014,1.526
0.925,-0.214,0.017,3.784,-2.197,1.221
0.931,-0.219,0.021,2.625,-2.441,0.61
0.943,-0.229,0.022,2.563,-1.831,-0.732
0.95,-0.228,0.015,2.93,-0.427,-1.709
0.955,-0.232,0.007,3.113,1.404,-2.38
0.962,-0.24,0.002,2.93,3.235,-2.686
0.966,-0.238,-0.004,2.808,4.272,-2.197
0.958,-0.236,-0.007,2.747,5.127,-1.709
0.951,-0.227,-0.007,2.808,5.737,-1.587
0.943,-0.216,-0.014,2.869,6.47,-1.465
0.94,-0.219,-0.017,2.991,7.141,-1.831
0.938,-0.219,-0.03,3.052,7.507,-2.625
0.927,-0.213,-0.034,2.991,6.348,-2.93
0.934,-0.208,-0.027,2.563,3.845,-3.052
0.944,-0.216,-0.023,1.709,1.221,-3.54
0.957,-0.224,-0.021,1.038,0,-4.15
0.968,-0.226,-0.02,1.343,-0.183,-4.7
0.983,-0.23,-0.013,1.831,-0.549,-5.188
0.992,-0.237,-0.003,1.709,-0.793,-4.822
0.995,-0.248,0,0.854,-1.099,-4.028
0.993,-0.245,0.007,0.916,-0.732,-3.296
0.99,-0.228,0.014,1.831,1.16,-2.869
0.981,-0.224,0.013,2.502,4.028,-3.418
0.975,-0.236,-0.003,2.441,5.249,-4.517
0.973,-0.244,-0.011,2.563,4.211,-4.272
0.968,-0.232,-0.01,2.869,2.319,-3.784
0.97,-0.217,-0.001,3.54,0.305,-3.418
0.971,-0.212,0.002,3.296,-1.099,-3.723
0.975,-0.22,0.007,2.441,-1.953,-4.089
0.985,-0.23,0.01,0.977,-3.235,-3.54
0.997,-0.24,0.01,-0.61,-4.15,-2.563
1.01,-0.254,0.007,-1.343,-3.418,-2.319
1.015,-0.252,0.007,-1.16,-1.953,-2.258
1.017,-0.248,0.004,-0.671,-0.61,-2.258
1.009,-0.253,-0.006,-0.488,1.038,-2.136
1.008,-0.261,-0.014,0.305,1.953,-1.892
1.001,-0.26,-0.019,1.587,2.686,-1.831
0.993,-0.251,-0.023,2.808,2.991,-1.648
0.986,-0.251,-0.031,2.869,2.38,-1.526
0.982,-0.253,-0.034,2.319,0.732,-1.038
0.984,-0.256,-0.032,1.831,-0.977,-0.183
0.985,-0.252,-0.032,1.221,-2.197,0.549
0.992,-0.256,-0.029,0.916,-2.38,0.732
,,,,,
1.144,-0.994,-0.678,-84.778,30.823,-50.598
1.154,-0.973,-0.797,-73.608,37.415,-45.898
1.124,-0.931,-0.882,-63.782,35.156,-34.912
1.054,-0.803,-0.933,-53.345,25.757,-24.231
0.993,-0.655,-0.91,-40.771,13.428,-17.517
0.951,-0.525,-0.814,-29.053,2.869,-14.648
0.884,-0.351,-0.718,-19.226,-3.113,-11.597
0.906,-0.285,-0.62,-12.939,-9.338,-11.841
0.976,-0.309,-0.513,-12.817,-16.663,-13.855
1.034,-0.31,-0.424,-13.184,-21.606,-12.39
1.138,-0.335,-0.338,-10.986,-23.315,-11.292
1.226,-0.356,-0.266,-8.85,-21.179,-10.559
1.264,-0.335,-0.197,-6.531,-16.296,-8.362
1.24,-0.267,-0.142,-2.747,-9.705,-6.409
1.234,-0.236,-0.108,0.488,-2.625,-5.981
1.193,-0.218,-0.09,1.343,4.272,-5.676
1.112,-0.168,-0.077,2.869,10.681,-4.333
1.049,-0.147,-0.052,4.028,14.404,-4.089
1.026,-0.163,-0.04,3.052,15.137,-4.639
1.017,-0.177,-0.051,1.77,14.404,-4.028
1.023,-0.204,-0.068,1.526,13.489,-3.723
1.031,-0.241,-0.085,1.648,11.719,-3.601
1.03,-0.261,-0.089,2.075,8.362,-2.563
1.025,-0.264,-0.09,2.991,4.028,-1.709
1.021,-0.257,-0.081,4.272,1.648,-1.648
1.025,-0.248,-0.065,5.554,0,-1.892
1.042,-0.247,-0.04,6.348,-1.953,-2.014
1.055,-0.249,-0.011,6.042,-3.723,-1.465
1.066,-0.25,0.007,6.042,-4.272,-0.427
1.079,-0.256,0.013,6.226,-3.174,-0.549
1.09,-0.281,0.01,5.859,-2.014,-1.16
1.095,-0.286,0.008,5.493,-1.892,0.244
1.087,-0.29,0.01,5.249,-2.38,2.747
1.082,-0.302,0.018,4.822,-2.625,4.456
1.049,-0.28,0.031,5.737,-1.282,5.981
1.023,-0.266,0.045,7.446,1.404,6.47
1.003,-0.268,0.049,7.263,3.052,6.592
0.984,-0.269,0.045,6.165,2.869,7.446
0.971,-0.264,0.047,6.47,2.075,7.568
0.973,-0.286,0.036,6.653,1.892,6.958
0.977,-0.3,0.029,6.897,1.343,6.714
0.964,-0.292,0.031,7.141,0.366,7.568
0.944,-0.273,0.041,7.507,-1.038,8.362
0.921,-0.252,0.057,7.812,-1.77,8.118
0.904,-0.23,0.076,7.996,-2.014,7.385
0.91,-0.237,0.092,6.714,-2.258,6.042
0.904,-0.232,0.099,5.371,-2.197,5.371
0.902,-0.224,0.102,5.127,-2.014,4.761
0.91,-0.221,0.11,3.54,-1.831,3.601
0.917,-0.229,0.096,1.709,-0.732,2.747
0.927,-0.239,0.077,0.977,0.977,2.075
0.93,-0.239,0.052,0.916,2.747,1.831
0.942,-0.242,0.027,0.854,3.479,1.221
0.943,-0.267,0.007,0,2.93,1.038
0.943,-0.268,-0.019,0.244,2.502,1.892
0.936,-0.255,-0.034,1.221,2.014,2.014
0.918,-0.246,-0.036,2.686,1.404,1.892
0.912,-0.237,-0.033,3.662,0,1.648
0.916,-0.235,-0.017,3.174,-1.892,1.648
0.926,-0.234,-0.01,1.709,-3.845,2.258
0.932,-0.25,-0.006,1.221,-4.272,1.77
0.943,-0.248,-0.004,1.831,-3.113,0.854
0.945,-0.25,-0.013,3.113,-1.465,0.244
0.951,-0.27,-0.026,3.235,-0.244,-0.366
0.962,-0.279,-0.038,3.784,-0.549,0
0.962,-0.278,-0.041,4.944,-1.16,0.61
0.962,-0.269,-0.046,6.104,-1.16,0.916
0.951,-0.271,-0.041,6.47,-1.587,0.671
0.943,-0.253,-0.038,7.08,-2.502,1.465
0.944,-0.243,-0.02,7.446,-3.845,1.709
0.953,-0.24,-0.004,6.775,-4.883,1.099
0.96,-0.24,0.003,6.104,-4.822,0.793
0.971,-0.244,0.006,5.554,-4.15,0.305
0.978,-0.247,0.004,5.371,-3.662,-0.061
0.986,-0.244,0.01,6.226,-3.052,-0.122
0.997,-0.25,0.012,6.287,-2.136,-0.671
0.995,-0.255,0.011,6.042,-1.648,-0.854
0.992,-0.249,0.017,6.287,-1.648,-0.244
0.989,-0.245,0.022,6.104,-1.648,0.244
0.992,-0.244,0.028,6.104,-2.136,0.61
0.991,-0.237,0.036,6.287,-3.052,1.221
0.988,-0.232,0.046,6.287,-4.028,1.77
0.991,-0.238,0.051,6.104,-4.517,2.075
0.993,-0.241,0.047,5.493,-4.395,2.686
0.995,-0.247,0.036,5.676,-3.906,2.686
1,-0.26,0.032,6.104,-3.113,2.197
0.997,-0.247,0.038,6.836,-2.625,2.625
0.982,-0.226,0.038,7.751,-1.953,2.93
0.959,-0.213,0.046,7.263,-2.014,2.686
0.949,-0.199,0.052,7.141,-2.319,2.197
0.953,-0.208,0.053,6.409,-2.747,1.221
0.965,-0.222,0.048,4.883,-3.479,0.366
0.967,-0.23,0.034,4.272,-4.089,0.244
0.98,-0.245,0.029,3.784,-4.456,-0.244
0.99,-0.253,0.017,3.296,-4.272,-0.427
0.989,-0.255,0.006,3.113,-4.15,-0.183
0.993,-0.265,0.001,3.357,-4.578,0.244
0.997,-0.274,-0.004,3.418,-5.554,1.404
0.997,-0.275,-0.005,3.601,-6.775,3.296
0.996,-0.269,-0.003,4.272,-7.507,4.456
0.995,-0.265,0.006,5.31,-7.08,4.944
0.981,-0.253,0.015,6.531,-5.676,4.944
0.958,-0.227,0.025,7.568,-3.967,4.578
0.934,-0.21,0.036,7.935,-2.625,3.906
0.933,-0.204,0.037,8.118,-2.747,3.235
0.934,-0.211,0.046,6.592,-3.784,2.686
0.94,-0.223,0.048,5.188,-4.761,2.563
0.948,-0.234,0.05,4.639,-5.188,1.953
0.941,-0.236,0.054,4.272,-5.188,2.136
0.94,-0.24,0.062,4.089,-5.249,2.014
0.944,-0.244,0.063,4.578,-4.761,1.648
0.938,-0.243,0.07,5.432,-3.418,1.587
0.936,-0.244,0.064,6.287,-2.014,1.465
0.933,-0.244,0.059,6.592,-0.854,1.221
0.923,-0.228,0.056,6.531,-0.488,1.282
0.911,-0.222,0.067,6.042,-1.099,1.16
0.918,-0.218,0.07,5.31,-2.197,0.977
0.925,-0.228,0.074,3.906,-3.113,0.305
0.942,-0.238,0.07,2.502,-3.052,-0.427
,,,,,
1.203,-0.885,-0.527,-59.143,-2.625,-22.278
1.203,-0.81,-0.545,-53.101,-1.587,-15.076
1.167,-0.713,-0.535,-44.556,2.991,-10.864
1.119,-0.621,-0.519,-34.607,10.193,-10.01
1.053,-0.513,-0.509,-24.292,18.799,-9.216
0.984,-0.402,-0.502,-15.076,27.344,-8.301
0.935,-0.322,-0.507,-9.155,32.654,-8.301
0.911,-0.287,-0.521,-6.836,33.203,-8.301
0.902,-0.267,-0.516,-5.737,28.564,-7.568
0.893,-0.221,-0.485,-3.662,21.118,-5.859
0.887,-0.166,-0.419,-1.404,13.916,-4.578
0.898,-0.13,-0.35,-0.122,8.606,-4.7
0.919,-0.13,-0.298,-0.122,6.104,-6.47
0.947,-0.158,-0.269,-0.427,6.714,-8.667
0.951,-0.169,-0.264,1.221,9.399,-10.62
0.96,-0.169,-0.264,3.418,10.62,-10.315
0.964,-0.169,-0.243,4.333,7.507,-8.972
0.971,-0.163,-0.195,4.517,1.16,-6.836
0.986,-0.153,-0.135,4.517,-4.456,-4.883
1.012,-0.148,-0.078,4.15,-7.751,-4.456
1.047,-0.163,-0.031,3.479,-8.728,-4.944
1.083,-0.177,0,2.136,-7.751,-5.249
1.104,-0.187,0.02,1.465,-5.615,-5.005
1.106,-0.189,0.035,1.526,-2.808,-3.906
1.089,-0.18,0.051,2.258,1.77,-3.296
1.08,-0.174,0.038,3.723,5.31,-3.967
1.08,-0.191,0.021,3.174,6.714,-3.845
1.079,-0.205,-0.001,0.977,5.676,-2.869
1.074,-0.206,-0.016,-0.61,3.418,-2.014
1.071,-0.206,-0.03,-1.16,2.258,-2.319
1.075,-0.222,-0.051,-1.099,2.38,-2.686
1.072,-0.236,-0.072,-0.793,1.831,-2.686
1.079,-0.254,-0.084,-0.549,0.61,-2.014
1.097,-0.275,-0.095,-0.732,-0.671,-1.16
1.111,-0.306,-0.11,-0.61,-0.61,-0.061
1.109,-0.319,-0.116,0.427,0.061,1.587
1.093,-0.31,-0.115,2.258,0.305,3.967
1.07,-0.295,-0.107,3.418,-0.488,5.92
1.055,-0.285,-0.1,4.456,-1.709,7.141
1.04,-0.284,-0.088,4.822,-2.075,8.057
1.009,-0.263,-0.079,5.249,-2.563,9.399
0.996,-0.245,-0.059,5.981,-3.113,9.46
0.984,-0.229,-0.039,6.47,-3.174,8.606
0.965,-0.213,-0.019,6.042,-2.441,8.362
0.951,-0.203,-0.01,5.249,-1.953,7.874
0.953,-0.217,-0.004,3.723,-1.526,6.958
0.952,-0.227,-0.01,3.174,-0.427,6.775
0.939,-0.219,-0.021,4.272,1.831,6.47
0.92,-0.208,-0.022,5.127,3.784,5.737
0.895,-0.19,-0.02,5.249,4.15,5.249
0.881,-0.185,-0.016,4.639,3.357,4.944
0.877,-0.193,-0.02,3.418,1.648,4.333
0.878,-0.198,-0.023,2.014,0.061,3.662
0.892,-0.209,-0.021,1.038,-1.099,3.113
0.903,-0.214,-0.02,-0.183,-1.465,2.93
0.903,-0.214,-0.021,-0.977,-1.099,2.502
0.9,-0.209,-0.026,-1.16,-0.061,1.648
0.904,-0.214,-0.031,-1.099,1.343,0.427
0.904,-0.223,-0.047,-0.549,3.174,-1.465
0.902,-0.23,-0.063,0.305,4.333,-2.869
0.901,-0.234,-0.077,0.549,3.967,-3.784
0.919,-0.242,-0.088,0.488,2.686,-3.479
0.936,-0.252,-0.097,1.16,1.587,-3.052
0.941,-0.255,-0.104,2.502,1.343,-3.235
0.94,-0.251,-0.105,3.479,1.221,-3.296
0.929,-0.25,-0.097,3.662,0,-2.93
0.919,-0.23,-0.082,3.296,-1.709,-2.014
0.912,-0.197,-0.07,3.662,-2.014,-1.77
0.916,-0.185,-0.059,4.456,-0.977,-3.357
0.922,-0.195,-0.053,4.15,0.244,-5.249
0.926,-0.213,-0.051,2.808,0.183,-5.554
0.936,-0.227,-0.048,1.343,-1.038,-5.249
0.956,-0.233,-0.05,-0.305,-1.831,-4.639
0.982,-0.24,-0.045,-1.038,-1.587,-4.395
1,-0.248,-0.044,-1.099,-0.305,-4.272
1.005,-0.257,-0.047,-1.221,1.282,-3.662
1.001,-0.266,-0.054,-1.831,2.319,-2.93
0.999,-0.269,-0.064,-1.831,2.502,-2.136
0.992,-0.261,-0.067,-1.038,3.296,-1.709
0.975,-0.236,-0.064,0.916,4.944,-1.953
0.967,-0.229,-0.054,2.686,6.104,-2.502
0.966,-0.237,-0.053,2.869,6.287,-2.747
0.961,-0.24,-0.059,2.808,5.615,-2.441
0.955,-0.236,-0.064,3.174,3.723,-2.258
0.953,-0.232,-0.059,3.052,1.343,-2.258
0.957,-0.226,-0.05,2.747,-0.977,-2.136
0.965,-0.227,-0.048,2.686,-2.258,-2.686
0.969,-0.229,-0.044,2.93,-2.563,-3.784
0.975,-0.222,-0.036,3.174,-2.686,-4.089
0.98,-0.216,-0.024,2.93,-3.418,-3.54
0.988,-0.214,-0.016,2.136,-3.906,-3.052
1,-0.225,-0.022,1.038,-3.967,-2.747
1.008,-0.236,-0.039,0.244,-3.906,-2.686
1.014,-0.24,-0.05,-0.183,-3.845,-2.38
1.019,-0.241,-0.052,-0.427,-3.967,-1.77
1.025,-0.248,-0.054,-0.671,-3.723,-1.221
1.026,-0.249,-0.058,-0.977,-3.174,-0.366
1.018,-0.246,-0.063,-0.427,-2.319,0.366
1.013,-0.245,-0.065,0.427,-1.77,0.793
1.005,-0.241,-0.067,0.488,-1.465,1.282
0.996,-0.238,-0.067,0.488,-1.404,1.526
0.99,-0.236,-0.076,0.671,-1.099,1.282
0.989,-0.241,-0.079,0.732,-0.916,0.671
0.996,-0.246,-0.078,1.099,-0.977,0.366
0.996,-0.249,-0.073,1.526,-0.671,0.671
0.993,-0.245,-0.066,1.77,-0.305,1.282
0.988,-0.244,-0.069,2.014,0.61,1.526
0.985,-0.252,-0.079,1.892,1.099,1.892
0.981,-0.258,-0.088,1.709,0.793,2.197
0.975,-0.257,-0.094,2.014,0.305,2.686
0.963,-0.247,-0.09,2.869,0.061,2.93
0.959,-0.241,-0.086,3.784,0.549,2.686
0.958,-0.239,-0.083,4.272,1.282,2.747
0.952,-0.239,-0.083,4.15,1.465,2.441
0.949,-0.239,-0.084,4.272,0.977,2.319
0.945,-0.234,-0.077,4.456,0.427,2.136
0.941,-0.229,-0.069,4.639,-0.61,1.892
0.941,-0.228,-0.061,4.333,-1.404,1.709
0.941,-0.228,-0.055,3.906,-2.136,1.831
,,,,,
1.28,-0.571,1.062,-134.705,-22.766,-51.88
1.419,-0.704,0.895,-148.987,-4.639,-44.617
1.474,-0.784,0.685,-153.137,16.602,-38.452
1.481,-0.881,0.463,-147.095,40.283,-36.072
1.438,-0.965,0.25,-133.362,62.378,-34.18
1.34,-1.001,0.06,-114.746,77.942,-28.809
1.179,-0.999,-0.089,-90.515,81.238,-17.578
1.061,-0.979,-0.193,-68.359,70.618,-1.831
0.991,-0.947,-0.267,-57.495,45.959,12.39
0.886,-0.875,-0.272,-51.331,13.611,25.757
0.79,-0.768,-0.205,-43.884,-13.245,34.79
0.699,-0.65,-0.096,-33.386,-28.748,37.537
0.68,-0.564,-0.006,-22.156,-35.034,35.095
0.755,-0.563,0.047,-19.226,-35.828,30.823
0.807,-0.574,0.079,-21.423,-32.898,29.236
0.755,-0.483,0.105,-19.897,-28.809,29.541
0.658,-0.336,0.158,-14.343,-26.917,26.184
0.616,-0.211,0.213,-12.207,-27.954,19.165
0.663,-0.204,0.238,-18.127,-28.259,10.559
0.77,-0.268,0.209,-27.893,-27.1,2.869
0.915,-0.371,0.13,-36.621,-24.78,-4.272
1.068,-0.491,0.033,-42.969,-21.912,-11.047
1.193,-0.588,-0.073,-44.312,-17.273,-13.916
1.267,-0.636,-0.179,-41.626,-11.841,-13.428
1.276,-0.651,-0.247,-36.011,-9.216,-10.803
1.238,-0.645,-0.25,-29.48,-10.681,-6.714
1.11,-0.539,-0.192,-20.569,-14.771,-3.174
1.007,-0.38,-0.097,-9.216,-22.461,-0.732
0.969,-0.254,0.028,-4.7,-33.264,0
0.958,-0.183,0.108,-8.423,-40.466,-1.709
0.961,-0.159,0.151,-15.564,-41.077,-5.493
0.967,-0.163,0.146,-22.339,-35.583,-11.23
0.987,-0.19,0.127,-27.771,-28.503,-19.043
1.005,-0.239,0.102,-31.738,-23.193,-25.33
1.022,-0.264,0.069,-35.522,-20.874,-28.442
1.037,-0.276,0.047,-37.292,-21.729,-27.344
1.05,-0.259,0.043,-36.743,-24.536,-24.353
